App Timestamp (us),Sensor Timestamp (us),Channel1 (uV),Channel2 (uV),Channel3 (uV),Channel4 (uV),Channel5 (uV), Channel6 (uV),Channel7 (uV),Channel8 (uV),Channel9 (uV),Channel10 (uV),Channel11 (uV),Channel12 (uV),Channel13 (uV),Channel14 (uV),Channel15 (uV),Channel16 (uV),AccX (mg),AccY (mg),AccZ (mg),Event A, Event B
6896000,2147483647,118478.3488,118117.7536,119105.168,88471.5104,118108.5472,115909.0688,116570.3616,8072.0192,116803.9936,119486.1696,43762.2752,91167.664,119105.168,119371.9744,120232.4928,-7.504,241,150,952,0,0
2000,4003,-1.7472,-0.9184,-1.5904,-2.8,-0.2464,-0.9408,-1.4112,1.3888,-1.1648,-0.56,-3.2256,-1.1872,-1.5904,-1.0752,-0.1792,0.0896,-1,-3,2,0,0
3000,3998,-1.0528,-0.5376,-0.6048,0.672,2.1056,0.4704,-2.7552,2.3968,-2.24,-2.8,1.3888,-0.6272,-0.6048,-0.5376,-0.5824,0.0672,-3,-1,-3,0,0
8000,3998,1.3216,0.6272,1.8144,1.12,1.7696,-0.112,0.1344,-0.2464,0.0896,-0.3808,2.576,-1.3216,1.8144,0.8064,-0.3136,-0.0896,3,2,4,0,0
4000,4005,1.7248,0.6496,1.4112,3.9424,-1.792,0.336,3.2032,-0.112,2.6208,3.4048,-3.1136,-1.0976,1.4112,0.1344,0.5376,0.3136,-3,-1,2,0,0
3000,4006,-0.9632,-0.4704,-1.1424,3.1808,-2.3968,-0.224,1.2992,0.6496,0.9408,1.2768,-0.8064,0.8736,-1.1424,0.0448,0.4032,-0.1792,1,1,1,0,0
2000,4002,-0.0448,0.6496,0.1568,1.1424,1.792,1.68,-0.7616,1.008,-0.6048,-1.2768,0.0448,-0.5376,0.1568,0.4928,0.56,-0.1344,1,-1,-7,0,0
5000,4004,-1.1872,-0.896,-0.7392,-6.1824,1.568,-0.4928,-2.576,0.5152,-2.1952,-2.912,1.4784,1.568,-0.7392,-0.0896,-0.2912,-0.0448,0,1,3,0,0
2000,4004,-0.4928,-1.12,-0.0224,-3.248,-0.2688,-1.5456,-0.9408,-1.3664,-1.2544,-1.344,4.8608,1.2768,-0.0224,0.1568,-0.7616,0.1792,0,-1,-1,0,0
5000,4005,-1.0528,-1.904,-1.2768,-0.1792,-3.8304,-2.7328,0.0,-2.5312,0.5376,2.24,-1.1648,0.5824,-1.2768,-1.4336,-1.6352,0.0,0,-4,-2,0,0
4000,4001,-0.896,-0.2464,-1.1424,-3.0016,-2.1728,-0.4928,1.1424,-1.7248,1.0976,1.7248,-0.896,2.1728,-1.1424,0.1792,0.784,-0.0224,6,5,1,0,0
4000,4004,0.784,1.4336,0.8288,2.7776,2.5088,3.0688,0.2016,2.4864,-0.5376,-1.2096,-0.3808,-1.0528,0.8288,0.3808,0.3584,-0.112,-4,-1,0,0,0
6000,4004,0.8512,1.0752,1.4784,2.9792,3.7856,0.8064,-1.2768,4.368,-0.784,-1.456,-3.1584,-2.464,1.4784,0.0224,0.3808,0.1792,0,-2,3,0,0
1000,4008,0.5824,-0.3136,0.8288,2.7552,-0.1344,-1.456,-0.0672,1.2544,-0.5152,-0.8736,2.0832,0.0,0.8288,-0.56,-0.5376,0.0,1,4,-2,0,0
5000,4000,1.2096,0.336,0.6048,0.5824,-2.24,0.6496,2.688,-2.7776,2.1056,2.128,2.0608,-0.0896,0.6048,0.8512,0.5376,-0.0448,0,-2,-1,0,0
4000,4002,-1.3216,-0.8512,-1.568,-4.5696,-2.1056,-0.3136,0.1344,-2.8,0.3808,0.6496,-0.336,1.0976,-1.568,-0.1568,-0.224,0.0672,-2,-3,5,0,0
3000,4005,-1.12,-0.448,-0.9856,-2.9792,0.672,-0.336,-1.4336,0.0224,-1.0976,-1.5232,0.2688,0.8736,-0.9856,0.0896,-0.0672,-0.0224,-2,2,-2,0,0
4000,4001,-2.24,-1.904,-1.7696,-2.2848,0.8064,-0.6944,-3.8528,-0.1568,-3.4272,-3.36,2.8672,1.5456,-1.7696,-1.1648,-1.904,-0.1344,1,1,-3,0,0
4000,4005,0.3584,-0.336,0.8288,-1.2096,0.2464,-0.5152,-0.2688,-0.8736,-0.3584,-0.5824,1.68,1.2096,0.8288,-0.0672,-0.3808,-0.2016,-3,-3,0,0,0
5000,4004,1.792,0.9632,1.3888,1.2096,-1.4336,0.0672,3.1136,-1.1872,2.9344,3.4048,-5.6672,-1.1872,1.3888,0.5152,0.8064,0.0672,9,4,3,0,0
3000,4001,0.7168,1.1648,0.1792,-1.6352,-0.3808,0.896,2.1504,-1.3216,2.2848,2.0832,-7.056,-0.8288,0.1792,1.2096,2.016,0.0448,-4,-2,-4,0,0
5000,4006,0.9408,1.7472,1.0752,1.6352,3.2032,2.24,0.2016,3.024,0.7392,0.9632,-3.1584,-2.7552,1.0752,1.008,1.9936,0.224,-1,-2,0,0,0
4000,4004,-0.1568,0.0,0.4704,3.2032,2.6432,0.8064,-2.5088,4.9504,-2.0832,-2.3072,-1.1872,-1.904,0.4704,-0.9632,-0.5824,0.2688,1,5,5,0,0
4000,4004,0.3584,-0.448,0.784,-3.3376,-0.672,-1.1648,0.2912,-0.4928,-0.224,0.0672,3.3376,0.2688,0.784,0.112,-0.9408,-0.336,1,-3,-3,0,0
4000,4002,0.56,-0.1568,0.1344,-1.344,-3.248,-1.1424,3.3152,-2.7104,2.5312,3.5168,1.568,2.3296,0.1344,1.6576,1.12,-0.224,-2,2,1,0,0
4000,4003,-0.7616,-0.5376,-1.1648,-1.344,-1.1872,0.5376,-0.0672,-1.7472,-0.1792,-0.0224,3.8976,1.0304,-1.1648,0.2912,-0.224,0.0896,5,-3,-1,0,0
3000,4015,-1.5232,-0.6272,-1.3216,0.3136,0.448,0.0672,-1.7696,1.7024,-1.7248,-2.9344,2.5312,0.0896,-1.3216,-0.2688,-0.4256,0.2912,-4,-1,1,0,0
5000,4000,-0.0224,0.5152,0.6272,5.1744,3.1584,0.5152,-2.016,4.8608,-1.5232,-1.9488,-1.8368,-1.7696,0.6272,-1.0752,-0.1344,-0.0448,0,5,-3,0,0
3000,4000,1.3888,0.4704,1.6576,1.904,0.56,0.0,0.672,0.4704,0.672,0.8288,2.3072,1.0752,1.6576,-0.0672,-0.0448,-0.112,-2,-4,1,0,0
5000,4008,0.1792,-0.6496,-0.3808,-1.6576,-3.3824,-0.9408,2.1952,-3.4496,1.68,1.4112,0.9408,1.9488,-0.3808,0.3584,0.1568,0.2016,4,4,-1,0,0
3000,4000,-2.3744,-1.7696,-2.3968,-4.6144,-2.5984,-1.232,-0.6272,-2.6656,-0.5824,-0.2688,0.0224,1.6352,-2.3968,-0.2688,-0.1344,-0.1344,0,0,0,0,0
5000,3999,-1.0528,-0.112,-0.8288,-1.9936,1.6576,0.9632,-1.6576,0.4256,-1.12,0.56,0.9856,0.0672,-0.8288,0.2016,0.3136,-0.112,-3,-2,0,0,0
3000,4005,-0.2688,0.1792,0.3808,-4.2112,2.7776,0.3136,-1.8816,-0.9408,-1.4784,-1.9264,2.2624,1.1424,0.3808,0.4256,0.0896,0.0896,-3,-2,1,0,0
4000,3998,0.2688,-1.008,0.4032,-3.2928,-1.0528,-1.344,-0.0896,-2.8672,-0.2912,-0.6496,0.7616,1.3888,0.4032,-0.4928,-0.56,0.0448,5,5,-3,0,0
5000,4009,1.7024,0.896,1.0752,2.0384,-1.8368,0.5152,3.2928,-0.5376,2.8672,3.7856,-4.6816,-2.0384,1.0752,0.336,1.0528,-0.2912,-1,-3,4,0,0
4000,3998,-0.9408,-0.224,-1.0976,-0.6048,-1.344,-0.0224,0.0896,0.5376,1.1648,1.008,-0.0896,-1.5008,-1.0976,0.6272,0.4032,0.0448,-1,-2,1,0,0
4000,4002,-0.0672,0.784,0.2912,-2.2848,2.1952,1.0752,-0.6496,0.784,-0.9632,-2.1728,3.5616,2.0384,0.2912,0.6272,0.4704,-0.0448,-1,3,2,0,0
4000,4005,-0.56,-0.224,-0.0448,2.0384,1.8592,-0.6944,-1.6352,2.464,-2.128,-3.2032,-0.112,-0.8512,-0.0448,-0.3584,-0.5152,-0.0224,2,-4,-2,0,0
3000,4004,2.912,1.9712,2.8672,7.2352,2.016,1.2096,1.3216,3.36,1.3664,1.8816,-8.5344,-5.152,2.8672,-0.8288,-0.448,0.2016,-4,3,-2,0,0
5000,4003,0.6272,0.0,0.0,0.0672,-2.9344,-0.1568,2.464,-2.5088,2.1504,3.3376,-0.3808,-0.7392,0.0,0.1792,0.112,-0.0448,6,0,3,0,0
4000,4001,-0.1344,0.4928,-0.5824,-1.2992,-0.5152,0.1344,0.9184,-2.576,0.9408,1.4112,-0.2464,0.784,-0.5824,0.9408,1.008,0.2464,-6,3,-1,0,0
4000,4004,-1.1872,-0.336,-1.0528,-1.5008,1.232,0.4032,-2.3296,-0.2016,-1.6352,-2.3968,0.6272,1.7248,-1.0528,-0.2912,-0.1344,0.0448,5,-3,-1,0,0
3000,4004,-1.12,-0.896,-0.448,-0.6048,1.3664,-0.3808,-2.5088,2.5984,-2.2848,-3.0688,3.136,1.568,-0.448,-0.112,-0.7168,-0.2912,-2,2,-1,0,0
4000,4003,-0.1568,-1.232,-0.0448,0.0224,-1.3216,-1.7472,-0.4704,0.9408,-0.448,0.0448,0.56,-0.5152,-0.0448,-0.672,-1.4112,0.1568,1,-5,0,0,0
6000,4002,1.3888,0.784,0.9856,0.6496,-1.7248,0.4032,2.8896,-0.2688,2.6208,3.0016,-3.0688,-0.7616,0.9856,0.6048,0.8288,-0.112,1,6,0,0,0
3000,4004,-0.224,0.2912,-0.5152,-0.5376,-0.784,0.56,1.232,-0.0448,1.1424,1.008,0.8512,0.0224,-0.5152,0.9408,0.8064,-0.1344,-3,-5,-1,0,0
4000,4006,-0.0896,0.6048,0.224,1.568,2.5088,1.3888,-1.1648,1.2992,-1.0528,-1.6352,1.008,-0.6048,0.224,0.0,0.4256,-0.0224,0,3,3,0,0
4000,4001,-1.1648,-0.8288,-0.56,1.2544,1.6128,-0.9632,-3.3824,0.784,-3.0016,-3.5168,3.8528,2.0608,-0.56,-1.2544,-1.5008,-0.1344,3,-1,-2,0,0
4000,4002,0.9632,-0.0224,0.8736,1.5456,-0.8736,-1.6576,1.0752,-1.9264,0.672,1.232,0.0448,0.9632,0.8736,-0.1568,-0.1568,0.0448,-3,-1,1,0,0
4000,4004,1.2096,0.7616,0.4704,1.1648,-2.0832,-0.0896,2.8224,-3.808,2.2848,3.4272,-2.4416,0.4032,0.4704,0.0,0.6944,0.0448,1,1,-4,0,0
3000,4004,-0.5376,0.1568,-1.0976,-1.3664,-0.8288,1.1424,0.112,-2.1728,0.0,0.1568,2.3296,0.9632,-1.0976,0.4256,0.112,-0.0448,-1,1,2,0,0
4000,4005,-1.7248,-1.12,-1.456,-3.6288,0.6272,0.4256,-2.4864,2.1728,-2.1504,-2.9792,4.1664,1.4112,-1.456,-0.0224,-0.6944,0.3808,0,2,-1,0,0
4000,4001,0.6048,0.56,1.1648,3.1136,3.0912,0.9856,-1.5456,5.7344,-1.1424,-1.9488,-6.6304,-1.9712,1.1648,-0.8064,0.3808,-0.0224,0,-6,2,0,0
4000,4004,0.8736,-0.2464,0.9408,-1.68,-1.3216,-1.5904,1.4336,-1.1872,1.344,1.6128,-0.7168,1.0752,0.9408,-0.1344,0.112,-0.0224,2,3,-3,0,0
4000,4001,0.6048,0.336,-0.0224,-0.112,-2.2848,-0.6944,2.3968,-4.3008,2.1728,3.136,2.6432,1.5008,-0.0224,0.9632,0.6944,-0.112,1,0,7,0,0
5000,4006,-0.8288,0.1344,-1.2544,0.1568,-0.8512,0.6048,0.2912,-1.2992,0.0224,0.6272,2.5536,-0.56,-1.2544,0.56,0.2464,-0.112,-1,-3,-3,0,0
6000,4004,-0.1792,0.448,-0.3136,0.336,2.24,1.2096,-2.0608,0.5152,-1.7248,-2.464,2.0608,0.4032,-0.3136,0.0224,-0.1344,0.0896,0,4,0,0,0
2000,4009,0.8064,0.56,1.1424,-0.4928,2.8448,0.5824,-1.9264,1.2096,-1.4336,-1.8816,-1.2096,0.6048,1.1424,-0.112,0.0448,-0.0224,0,1,-2,0,0
3000,3995,2.576,1.3888,2.4192,6.0928,-0.0672,0.1344,2.912,1.9712,2.3744,2.5312,-4.7488,-3.136,2.4192,0.4032,0.112,0.0,-1,0,4,0,0
4000,4006,1.2768,0.784,0.8288,2.5536,-1.792,0.5376,2.912,-0.4928,2.3744,3.2928,-1.6576,-1.2992,0.8288,0.1344,0.2912,-0.1344,-1,-4,-3,0,0
4000,4002,-2.2176,-1.12,-2.7328,-0.2912,-1.7472,-1.4784,-1.9712,0.1344,-0.9856,-0.4256,1.68,0.3584,-2.7328,-0.5376,-0.336,-0.2016,-1,0,-4,0,0
4000,4005,0.2016,0.8512,0.0,0.1792,2.1728,0.896,-1.4112,2.2176,-1.0304,-1.6352,2.4416,-0.56,0.0,0.7616,0.8512,0.336,4,-1,1,0,0
4000,4003,1.008,0.6272,1.456,2.24,2.8672,0.2912,-0.784,2.3296,-1.792,-3.36,1.232,-1.2992,1.456,-0.2688,-0.6944,0.0,-2,-1,-1,0,0
5000,4002,0.448,-0.6048,0.5824,-2.0384,-1.5008,-0.896,0.7392,-1.8592,0.5824,0.224,-0.7392,-0.4256,0.5824,-0.5152,-0.8736,0.112,5,5,4,0,0
4000,4004,-0.0672,-0.2688,-0.896,2.4416,-3.0912,-0.336,1.568,-2.4192,1.2992,2.576,0.2688,-0.0672,-0.896,-0.112,-0.2688,-0.0672,-6,-2,4,0,0
4000,4005,-0.784,0.1568,-1.7472,0.2016,-1.1872,-0.448,-0.448,-2.5312,-0.4256,1.1648,-0.0896,0.5376,-1.7472,-0.0448,-0.0672,0.0224,6,3,-11,0,0
3000,4004,-0.7392,0.0896,-0.2912,-4.48,1.904,0.5152,-1.7248,0.1568,-1.3664,-1.7696,2.1056,1.792,-0.2912,0.336,0.56,-0.0672,-4,2,5,0,0
5000,4002,-1.344,-1.2544,-0.6048,-0.3808,0.784,-1.3664,-2.8896,1.5904,-2.7552,-3.6736,2.9344,0.9408,-0.6048,-0.8288,-1.4112,0.0896,0,2,1,0,0
3000,4012,2.8224,1.4784,2.576,3.248,0.672,1.6352,2.128,-0.2464,2.1056,1.8144,-4.368,-2.4416,2.576,0.0896,0.4704,0.0224,4,-4,-1,0,0
5000,4001,2.2176,2.0384,1.5232,4.3232,-0.7616,0.8736,4.144,-0.6048,3.9424,4.8384,-5.264,-1.68,1.5232,1.1424,2.128,-0.0896,-8,-3,3,0,0
4000,4004,-2.1504,-1.2544,-2.2176,-0.5824,-1.4784,-1.3216,-1.5008,0.4928,-1.2544,-0.6272,3.1584,0.9632,-2.2176,-1.232,-0.8736,-0.2016,4,1,-1,0,0
4000,3997,-2.1056,-1.3664,-1.568,-3.9872,0.8064,-0.112,-2.7776,0.56,-2.4192,-3.472,2.9344,0.8064,-1.568,-0.6048,-0.8064,0.2016,-2,-2,-1,0,0
4000,4000,-0.6048,-0.7616,0.0896,-3.696,1.456,-0.8064,-2.1056,-1.008,-1.9264,-2.6656,1.9712,2.6208,0.0896,-0.112,-0.6272,0.0672,6,4,0,0,0
4000,4005,0.1792,-1.1424,0.0448,-4.1664,-2.4864,-1.0976,0.9408,-3.8752,0.4256,0.9856,1.9936,2.352,0.0448,-0.2464,-0.784,-0.112,1,-2,-1,0,0
4000,4004,0.224,-0.2016,-0.3808,-1.568,-2.7328,0.0672,2.0608,-3.2032,1.8368,2.6656,-0.5376,1.4784,-0.3808,0.5376,0.5152,0.0448,-4,-5,3,0,0
4000,4005,-0.5824,-0.0224,-0.448,-0.3136,0.336,0.9184,-0.448,0.1344,-0.1568,-0.3808,-3.2032,0.0224,-0.448,-0.5152,0.6048,-0.0672,-2,7,-3,0,0
5000,4013,-0.4032,0.3584,0.1568,1.1648,2.4864,0.6496,-1.4112,3.9872,-1.12,-1.8368,-3.584,-1.12,0.1568,-0.6272,0.5152,0.1344,2,-7,3,0,0
3000,3991,-1.3888,-1.1872,-0.7392,-2.8672,0.4704,-1.68,-1.9264,0.112,-1.7248,-2.2624,5.1968,1.7248,-0.7392,0.0448,-0.8064,-0.3136,0,0,-3,0,0
4000,4003,1.0304,-0.224,1.008,-0.5152,-1.456,-1.1424,1.8816,-3.584,1.1648,2.2176,4.3904,1.6128,1.008,0.9632,-0.0448,0.0896,4,6,0,0,0
4000,4004,0.112,-0.1568,0.1568,-3.5392,-1.7248,0.3808,2.2848,-0.7168,1.8592,2.8,-1.5008,-0.9632,0.1568,0.896,0.6048,0.1792,-2,-1,3,0,0
4000,4004,-1.9712,-1.232,-2.1728,-0.7392,-1.2992,0.448,-1.3888,0.9408,-1.2992,-1.3216,-0.4256,-1.2096,-2.1728,-1.2096,-0.7168,0.1344,-1,-1,1,0,0
4000,4002,0.2912,1.1648,0.1568,3.9424,3.024,1.0752,-2.016,3.4048,-1.4336,-1.7696,-3.36,-1.6352,0.1568,-0.896,0.3136,-0.0896,-4,0,-3,0,0
5000,4005,0.6048,0.4704,1.2992,-1.8592,2.24,0.4032,-0.7616,2.9568,-0.4032,-1.3664,1.9264,-1.0976,1.2992,0.2464,0.224,-0.1344,5,5,2,0,0
3000,3998,0.2688,-1.0304,0.6048,-0.9856,-2.2624,-0.8512,1.8816,-0.4704,1.1648,1.5456,1.8368,-1.008,0.6048,-0.2464,-0.2688,-0.0896,-4,1,0,0,0
4000,4006,0.6272,0.5152,0.0672,-0.0896,-1.904,0.5152,2.2848,-0.7616,1.9936,3.0912,-1.5008,-0.6944,0.0672,0.896,0.56,0.2688,-2,-6,0,0,0
4000,4020,-0.5152,0.336,-0.6496,1.9712,0.2688,0.6048,-0.5152,0.6272,-0.2016,0.2016,-1.5232,0.7616,-0.6496,0.5824,0.672,-0.112,3,-1,-4,0,0
4000,3986,-2.1952,-1.5904,-1.8144,1.7024,0.672,-2.128,-3.696,1.9264,-2.3072,-2.7104,-1.8592,-0.1344,-1.8144,-0.7168,-0.7168,-0.1344,-4,5,2,0,0
5000,4006,0.4704,-0.0896,1.0752,0.336,1.9936,0.3584,-0.9856,2.0832,-1.4784,-2.8896,1.456,-1.3888,1.0752,-0.6944,-1.5232,-0.0224,1,-3,3,0,0
3000,4002,1.6128,0.7168,1.5232,-1.2992,-1.008,0.336,2.9568,-1.12,2.0832,3.3376,0.1344,0.7168,1.5232,0.4704,0.2688,0.0224,1,1,0,0,0
4000,4002,-0.336,-0.3136,-0.8512,-2.4192,-2.8896,-0.3808,1.9712,-2.1952,1.7472,2.3296,0.4032,-0.224,-0.8512,0.4704,0.448,0.1344,0,-4,-1,0,0
4000,4003,-1.5456,-0.8064,-1.5232,-1.5232,-0.3584,-0.4704,-1.344,0.0896,-1.232,-1.7472,2.7552,2.016,-1.5232,-0.0672,-0.2016,0.1344,-1,1,-2,0,0
4000,4004,0.2688,0.9632,0.672,0.1344,3.808,0.8512,-1.6352,2.3968,-1.12,-2.128,-2.016,0.7168,0.672,0.896,1.12,0.0,2,5,0,0,0
4000,4004,-0.7168,-1.008,-0.0896,-2.3744,0.7392,-0.2464,-2.128,0.3584,-1.792,-2.3744,1.3216,-0.448,-0.0896,-1.0528,-1.568,-0.0672,3,-2,-1,0,0
4000,4005,0.7168,-0.5152,0.4256,-0.56,-2.5536,-0.8288,1.9488,-2.2176,1.5456,2.5984,-2.1952,1.5008,0.4256,-0.2688,0.0224,-0.0672,-1,-2,3,0,0
4000,4001,-0.448,-0.2016,-0.784,-1.008,-2.1952,-0.3808,1.5232,-2.1056,1.5008,2.4416,0.112,0.8512,-0.784,0.1792,0.5824,0.1568,-1,-1,-2,0,0
5000,4010,-0.9632,-0.4032,-1.008,0.7392,0.0448,0.448,-0.8288,1.4112,-0.6048,-0.784,0.0448,0.0672,-1.008,-0.4032,0.2016,-0.2688,1,2,2,0,0
4000,3997,-0.5376,-0.0672,0.0,0.112,2.2848,0.5824,-1.7024,2.1952,-1.5904,-2.8896,-2.5312,-1.2992,0.0,-0.112,0.4032,-0.2016,1,0,3,0,0
6000,4010,0.9856,0.4256,1.4112,-0.336,2.0384,-0.3584,-0.4928,1.3888,-0.3136,-1.2096,-0.1344,-0.4256,1.4112,0.3584,0.0224,0.1344,-5,-2,-4,0,0
1000,4008,0.896,-0.1344,0.6496,-1.9936,-2.3968,-0.4704,2.0608,-2.8448,1.5008,3.248,1.8368,0.784,0.6496,0.4032,-0.224,0.2688,1,1,0,0,0
4000,3992,-0.112,0.1568,-0.2464,-2.016,-1.904,1.0752,2.3968,-2.3296,1.9488,2.9568,2.464,0.5824,-0.2464,1.5904,1.0752,-0.2016,2,1,3,0,0
4000,4003,-1.344,-0.6272,-1.232,-0.2464,0.3136,-0.672,-1.2544,-0.3808,-1.1424,-1.7024,2.24,0.7392,-1.232,0.3808,-0.0896,-0.2016,-3,-1,-1,0,0
4000,4003,0.4928,1.2768,0.784,4.368,3.6288,1.0528,-1.3664,3.1136,-0.8736,-1.7248,-4.3904,-1.6352,0.784,0.224,0.8064,0.2688,2,5,0,0,0
4000,4003,1.3664,0.8064,1.5456,2.7552,2.4192,1.1424,-1.1648,1.2992,-0.7392,-0.8288,-5.3088,-2.5536,1.5456,-1.9488,-0.5824,0.0672,-4,-6,-1,0,0
4000,4004,0.336,-0.896,-0.0672,-0.896,-3.5392,-1.792,1.9936,-3.8976,1.4112,1.5008,3.9648,1.9488,-0.0672,-0.2688,-0.784,-0.0896,5,-1,-3,0,0
4000,4002,-0.448,-0.448,-0.8736,0.448,-2.464,-0.2016,1.6576,-1.2544,1.3664,2.0384,1.6576,2.5312,-0.8736,1.12,0.4256,0.112,3,3,-1,0,0
4000,4005,-0.672,-0.1344,-0.336,-3.8528,0.4928,0.8064,-0.1792,0.1792,-0.2688,-0.336,-0.6496,0.336,-0.336,0.7392,0.8288,-0.1792,-1,-3,0,0,0
4000,4002,0.672,1.2544,1.1648,0.4928,4.0096,1.2768,-1.2992,3.8528,-0.7168,-1.4784,-3.248,-2.7328,1.1648,0.224,1.008,-0.112,0,2,1,0,0
4000,4004,-0.5152,-0.8288,0.0224,-1.68,0.448,-0.784,-1.8368,0.8736,-1.5008,-1.8592,1.0752,-0.1344,0.0224,-1.68,-1.6352,0.112,-5,4,-1,0,0
4000,4004,0.112,-0.8288,-0.0896,-1.0752,-3.1584,-1.6352,1.7248,-3.6512,1.008,2.016,0.4032,0.6048,-0.0896,-0.8512,-0.9184,-0.0672,1,2,0,0,0
4000,4002,-0.336,-0.0448,-0.8736,-2.912,-2.128,-0.3808,1.792,-2.912,1.344,1.9936,-1.0528,0.5152,-0.8736,0.6944,0.9408,-0.0672,6,-8,3,0,0
5000,4017,-0.6496,0.224,-0.6048,0.0896,1.0528,1.0976,-0.7392,2.3296,-0.3584,-0.784,-0.4704,-0.0224,-0.6048,0.3808,0.6944,0.2688,-7,2,1,0,0
3000,3991,-0.6272,-0.0224,-0.224,2.7328,2.576,0.7616,-2.6208,4.6144,-1.5456,-1.568,0.0,-0.7616,-0.224,-0.0448,-0.0448,0.0672,0,3,-3,0,0
4000,4002,-0.56,-1.0976,0.0448,0.4704,0.112,-1.2096,-1.6352,0.224,-0.9184,-0.8288,1.8144,-0.4256,0.0448,-0.4032,-0.56,-0.2016,2,-1,1,0,0
4000,4005,2.016,0.8064,1.792,-0.4704,-1.4336,-0.2464,3.6064,-3.7856,1.8816,2.0608,3.8304,1.0976,1.792,0.6048,-0.0224,0.2688,-1,-2,3,0,0
4000,4005,-0.224,-0.0224,-0.896,-0.6944,-1.8816,-0.2912,1.3216,-2.8224,1.0976,1.1424,-0.4928,0.0224,-0.896,0.6048,0.2912,-0.2688,2,1,-2,0,0
4000,4001,-1.1872,-0.3808,-1.0752,-3.5616,0.4256,0.9856,-1.3216,0.1568,-0.8736,-1.5456,-0.3584,0.3584,-1.0752,-0.1344,-0.112,-0.2688,-2,1,1,0,0
4000,4003,0.336,1.008,1.008,-2.9792,3.5392,1.0976,-1.1872,1.456,-0.5152,-1.6128,0.3584,1.2544,1.008,0.7616,1.008,0.3136,-2,-1,3,0,0
4000,4003,-0.224,-0.9408,-0.0448,-1.3664,0.0448,-1.1648,-1.5008,-0.896,-1.3888,-1.568,1.2096,1.9712,-0.0448,-0.8512,-1.12,-0.0672,2,-1,-2,0,0
4000,4003,-0.6048,-1.4112,-0.9856,-1.232,-4.032,-1.6576,0.9632,-2.9568,0.4256,2.6208,-0.9632,-0.4256,-0.9856,-1.232,-1.2768,0.1792,1,1,-1,0,0
4000,4005,0.6272,1.0752,0.3136,-1.792,-0.5376,0.8512,2.2848,-2.0384,2.1056,2.688,-1.6352,-0.5152,0.3136,1.0528,1.568,0.0896,2,-2,2,0,0
4000,4005,-0.448,-0.0224,-0.4256,-4.0096,0.9856,0.6496,-0.9184,0.448,-0.7168,-1.568,-0.9856,0.672,-0.4256,0.112,0.7616,0.0224,-4,0,-3,0,0
4000,4001,-1.9264,-1.8144,-1.0752,-5.6224,1.1648,0.1344,-3.136,2.016,-2.9568,-3.6736,1.8816,1.9264,-1.0752,-0.7392,-0.4928,-0.0224,-2,-2,0,0,0
4000,4002,-0.0896,-0.4032,0.2912,2.8672,0.0224,-1.0752,-0.2688,0.5824,-0.4928,-1.2544,4.1216,0.6944,0.2912,0.4256,-0.8512,-0.0448,4,0,3,0,0
4000,4003,0.9408,0.1792,0.1344,4.6368,-2.4192,-1.12,1.792,-0.3808,1.5232,2.7328,1.2544,-0.6944,0.1344,0.5376,-1.1648,0.0224,2,-2,-3,0,0
4000,4006,0.9856,1.5232,0.3136,3.2704,0.0448,1.0752,1.7024,1.9936,1.8368,3.696,-8.5344,-3.6288,0.3136,0.0672,1.2544,-0.0224,-3,0,6,0,0
4000,3998,-0.336,0.3808,-0.0224,-3.7408,1.3664,0.784,-0.112,1.0752,0.2464,-0.6272,-1.4784,-0.896,-0.0224,-0.0672,1.1424,-0.1568,3,2,-2,0,0
4000,4007,-0.7616,-0.0224,-0.1568,-1.2768,2.2624,0.2688,-1.9264,0.9408,-1.792,-2.688,5.6448,2.6208,-0.1568,0.4704,0.0896,0.2464,-3,2,-3,0,0
5000,4002,-0.1568,-0.7168,0.2464,-1.3216,-0.4256,-1.6576,-0.7168,-0.8288,-1.0528,-1.232,5.8016,1.9712,0.2464,-0.0448,-0.8512,-0.2016,5,5,0,0,0
3000,4004,0.8736,0.0,0.112,3.0912,-2.6208,-0.7392,2.0832,-1.5456,1.5008,2.5984,0.0224,-0.784,0.112,-0.672,-0.8064,0.0224,-5,3,0,0,0
4000,4005,1.1872,1.568,0.784,3.9872,0.336,1.5904,2.3296,1.2544,2.3968,2.688,-9.4528,-2.6432,0.784,0.2688,1.8592,0.3136,1,-5,-4,0,0
4000,4004,-1.7472,-0.672,-1.5232,1.2768,0.672,-0.4928,-2.3296,2.24,-1.7024,-1.9264,0.4928,0.3584,-1.5232,-1.2992,-0.5824,-0.0672,-1,3,3,0,0
4000,4001,-0.1792,0.6048,0.0896,-2.1952,2.464,0.896,-1.8816,2.3968,-1.1648,-2.24,1.792,0.5824,0.0896,0.6944,0.3584,-0.2464,-1,-4,-4,0,0
4000,4005,1.1424,0.4032,1.4784,-2.7552,0.9184,-0.0224,0.5824,-0.8288,0.4032,-0.2688,0.2464,-0.3808,1.4784,0.6496,0.2912,0.0,3,1,2,0,0
6000,4004,-0.0672,-0.9632,-0.336,-1.4336,-3.1584,-1.5456,1.6128,-2.8896,1.0528,2.0608,-0.8512,0.4256,-0.336,-0.5376,-0.8736,-0.0672,-7,1,1,0,0
2000,4001,0.4256,0.8064,0.1792,3.5168,-0.6496,1.0528,1.8368,0.56,1.68,2.1728,0.224,-1.792,0.1792,1.2768,0.8064,-0.2688,8,0,0,0,0
4000,4006,0.2016,1.12,0.5376,1.232,2.24,0.784,-0.448,1.7472,-0.0896,-0.1792,-0.784,-1.568,0.5376,0.672,0.8512,0.112,3,-2,0,0,0
5000,4000,-0.9632,-0.2688,-0.4256,1.0752,2.2624,0.0448,-2.9344,2.4192,-2.2848,-3.1136,-0.8512,0.2016,-0.4256,-1.0752,-0.672,0.224,-3,-1,4,0,0
3000,4005,-0.4704,-1.4336,-0.3584,-5.9584,-0.9632,-1.5232,-1.2768,-2.6432,-0.2464,-0.7616,0.9856,0.8064,-0.3584,-0.224,-0.6944,0.3136,-3,4,-2,0,0
4000,4004,0.56,-0.224,0.1568,-1.8368,-3.0464,-0.784,3.2256,-2.6208,2.3072,2.912,-2.0384,-0.1344,0.1568,0.6496,0.6496,-0.2016,3,-2,-1,0,0
4000,4001,0.8288,1.4336,0.3808,1.4112,0.1792,1.5008,1.7472,-0.4256,1.2544,2.576,-1.5456,0.224,0.3808,0.6048,0.7616,-0.1568,-3,-3,-2,0,0
4000,4005,-1.6576,-0.9632,-1.568,-3.1808,0.4256,-0.0448,-2.5088,0.1344,-2.0832,-2.1952,2.9344,2.0832,-1.568,-0.4928,-0.5824,0.0,2,0,0,0,0
4000,4003,-1.5232,-1.12,-0.9184,-1.232,1.4784,-0.5376,-3.2704,2.8,-3.0016,-4.0992,1.7024,0.7168,-0.9184,-1.3664,-1.232,-0.0672,0,5,0,0,0
4000,4003,-0.0672,-0.9632,0.224,0.2688,-1.0304,-1.344,-0.2688,0.896,-0.7616,-0.6496,2.6656,0.896,0.224,-0.9856,-1.2544,0.112,2,1,0,0,0
6000,4003,0.224,-0.56,-0.1792,-3.2928,-3.4272,-0.9632,2.2624,-4.2336,1.6128,2.8896,1.4336,0.5824,-0.1792,0.3584,-0.0448,0.0224,-5,1,2,0,0
2000,4002,-0.8512,-0.3808,-1.0304,-0.6272,-1.344,-0.3808,0.56,-2.3744,0.3808,0.4704,1.9264,-0.112,-1.0304,0.6496,0.3808,0.0672,7,-5,1,0,0
4000,4004,-0.6272,0.2912,-0.448,0.4256,1.8144,1.5008,-1.5904,1.344,-1.0528,-1.568,-1.6128,-0.4032,-0.448,-0.2016,0.2688,-0.1344,-5,4,-4,0,0
4000,3999,0.2016,0.5824,0.5824,0.9856,2.9344,0.9856,-1.8144,2.4192,-1.3216,-1.9712,-3.248,-0.5152,0.5824,-0.0896,0.672,0.0896,-1,-4,2,0,0
4000,4008,0.6944,-0.2464,1.0304,3.0464,-0.3808,-1.6352,0.6272,0.6944,0.2016,0.8512,-0.3584,-1.008,1.0304,-0.7392,-0.4928,-0.224,5,-2,-1,0,0
4000,4002,0.1344,-0.6496,-0.2912,0.3136,-3.4048,-1.6352,2.3072,-3.9424,1.9488,2.3968,4.6144,2.0608,-0.2912,0.3136,-0.336,0.2688,-10,1,1,0,0
4000,4004,-0.112,0.1568,-0.7392,-0.9408,-0.6496,1.3888,0.1344,-2.2176,0.448,0.336,-0.5824,1.0976,-0.7392,-0.0672,0.1792,-0.2016,4,-3,0,0,0
4000,4003,-0.0672,0.8736,0.0448,-4.5024,1.8816,1.5456,-0.7392,0.2688,-0.2688,-1.232,-2.8672,0.3136,0.0448,0.4256,0.9856,0.224,4,2,4,0,0
4000,4005,-1.2992,-0.8064,-0.784,-4.3232,1.6352,-0.6048,-2.7776,1.1872,-2.4864,-3.0016,2.4416,1.1872,-0.784,-1.0752,-0.9184,-0.112,-3,0,-2,0,0
4000,4002,-0.4928,-1.3216,-0.3136,-1.1424,-1.6576,-1.5456,-0.3136,-1.68,-0.8512,0.9856,0.672,1.3216,-0.3136,-0.9856,-1.344,-0.0224,1,1,1,0,0
4000,4003,0.896,0.3136,0.2688,0.2912,-2.2848,-0.3584,2.6656,-2.8224,2.1952,3.0688,-3.1808,-0.896,0.2688,0.6048,0.3136,0.0,9,1,-3,0,0
4000,4004,-0.3808,0.112,-0.5376,-3.3152,-0.7392,0.336,0.5152,-2.2848,0.5824,0.1792,-0.9856,0.9408,-0.5376,0.6496,0.7168,-0.0672,-8,-4,4,0,0
4000,4003,-1.4336,-0.7168,-1.2544,0.9632,0.5824,-0.5376,-1.9264,1.7248,-1.7696,-1.9488,0.9856,1.3216,-1.2544,-0.1792,0.0,0.1344,0,5,-3,0,0
4000,4005,0.7392,1.0304,1.0976,2.688,3.7408,1.2768,-1.7024,2.7104,-1.3664,-2.2848,1.9712,0.3808,1.0976,0.4032,0.2464,-0.0672,-2,-3,0,0,0
4000,4001,1.008,-0.1568,0.896,2.0608,-0.8288,-0.6272,0.9408,-0.4704,0.6048,0.6944,2.1952,-0.0448,0.896,0.1568,-0.4928,0.1344,2,2,-1,0,0
4000,4003,0.4032,-0.0896,-0.2912,1.3216,-2.7104,-0.6496,1.5456,-2.016,1.5904,2.7104,0.0224,1.3216,-0.2912,-0.1568,-0.1792,-0.1344,-1,-2,2,0,0
4000,4006,-1.232,-0.448,-1.3216,-4.4352,-1.792,-0.2464,0.4928,-1.6128,0.448,0.0224,3.4944,2.3072,-1.3216,0.8064,1.008,0.112,5,-1,-6,0,0
4000,4002,-0.672,0.1344,-0.3584,-0.4032,2.016,1.008,-1.3216,1.5008,-1.2992,-1.9488,1.5008,0.4256,-0.3584,0.0448,0.7168,-0.112,-10,3,1,0,0
6000,4004,-0.7392,-0.7168,0.0224,-3.5616,1.9712,-0.6272,-2.7328,-0.0896,-2.6208,-1.7024,7.0336,0.336,0.0224,-0.6944,-1.456,-0.112,7,1,6,0,0
4000,4002,-0.56,-1.5232,-0.448,-1.9712,-2.3072,-1.6576,-0.4256,-4.256,-0.672,-0.6272,5.9808,2.3072,-0.448,-0.3136,-1.8592,0.1568,2,-1,-6,0,0
3000,4003,-0.4032,-0.9184,-0.896,0.336,-3.5616,-1.904,1.3888,-3.9872,2.2624,2.8,-4.48,0.9632,-0.896,0.56,1.3216,-0.112,-4,1,8,0,0
4000,4006,0.9632,1.5008,0.6272,5.2864,1.0528,1.7472,1.6352,2.8672,0.8512,0.7392,-3.5168,-0.0672,0.6272,0.1344,1.0976,-0.0224,1,0,-5,0,0
4000,4000,1.12,1.8592,1.4112,3.8976,3.92,2.576,-0.6048,5.8688,0.0,-0.8736,-5.9136,-3.8528,1.4112,-0.224,0.2688,0.3136,0,-1,-3,0,0
3000,4004,0.2912,0.0672,1.0304,-2.016,2.6208,1.344,-1.2544,2.7776,-0.9856,-2.464,0.224,-2.1056,1.0304,0.1344,0.0448,-0.224,-2,3,5,0,0
4000,4006,0.224,-0.8512,0.2464,-1.3664,-1.9264,-1.568,0.8512,-2.0384,0.336,0.3808,3.5616,-0.0224,0.2464,-0.1568,-0.8288,0.0224,2,-3,-2,0,0
4000,4001,-0.2912,-0.2464,-0.9632,2.7104,-3.4496,-0.9184,1.9488,-3.024,1.1872,3.2256,1.8368,-1.0976,-0.9632,-0.2688,-0.224,0.0,3,1,0,0,0
4000,4005,-0.2688,0.3584,-0.4928,-0.1568,-0.2912,0.8064,0.448,-0.2016,0.3136,0.9408,-1.4336,1.3888,-0.4928,0.448,1.0752,0.0448,1,-3,1,0,0
4000,4027,-0.7392,-0.224,-0.56,0.8288,1.5232,-0.2464,-2.1952,1.4112,-1.9264,-2.5536,0.8288,1.904,-0.56,-0.1568,0.224,-0.1792,-1,-1,-1,0,0
4000,4004,0.8288,0.784,1.4336,3.7856,3.4944,0.9632,-1.7696,3.9424,-1.2096,-2.128,-0.0448,-1.2096,1.4336,0.3136,-0.3808,0.0,-3,3,1,0,0
4000,4001,0.6944,-0.1792,0.9632,-1.232,-1.1872,-0.9408,1.2096,-0.784,0.8512,1.5456,0.0672,-0.2912,0.9632,-0.2016,-0.8064,-0.0672,-3,-2,2,0,0
4000,4001,-0.2912,-0.672,-0.8288,-0.3584,-3.4944,-1.456,2.1952,-3.0464,1.5008,2.1952,-1.7248,0.0896,-0.8288,-0.112,0.0,0.4032,-3,5,1,0,0
4000,4005,0.8288,1.456,0.6272,3.1808,1.2544,2.4192,1.2768,2.2848,1.344,1.232,-1.9936,-0.8288,0.6272,1.0976,1.6128,-0.2016,5,-5,-2,0,0
5000,4003,-0.1344,0.4704,0.1344,1.5008,2.464,1.2096,-1.5232,3.5168,-0.896,-1.0304,-0.896,-0.0224,0.1344,0.2016,0.336,0.0224,-2,3,6,0,0
3000,4001,-1.7696,-1.8592,-1.232,-2.352,0.4704,-1.456,-3.2928,-0.672,-3.2032,-3.6064,4.032,0.8064,-1.232,-1.3664,-1.9936,0.2016,-1,-7,-6,0,0
4000,4008,1.9936,0.6272,1.792,2.9792,-0.224,-0.0672,2.1504,-1.5456,1.68,0.5376,-1.4112,-0.448,1.792,0.2912,0.56,0.0448,5,5,0,0,0
4000,4000,0.7616,0.448,0.112,-3.1584,-2.5088,-1.344,2.5088,-3.808,2.24,2.9792,0.336,1.3888,0.112,0.6272,0.672,-0.2688,-4,-1,-3,0,0
4000,4001,-2.2176,-1.344,-2.464,-2.3072,-1.9264,-0.3136,-1.0752,-0.112,-0.9632,0.3584,2.464,0.9184,-2.464,-0.448,-0.6048,-0.1344,-2,0,3,0,0
4000,4003,-0.8736,-0.0672,-0.6048,2.576,2.128,1.3216,-2.2176,3.2928,-1.8816,-2.3744,0.4032,-0.0224,-0.6048,-0.5152,-0.1344,0.1792,6,-3,2,0,0
5000,4006,-0.224,-0.336,0.2016,2.016,1.792,-0.4928,-2.0384,2.7104,-1.8592,-2.576,-0.1344,0.4032,0.2016,-0.8512,-0.6944,-0.0896,-3,2,2,0,0
3000,4004,0.896,-0.112,0.9632,-1.1424,-1.456,-1.568,1.5232,-2.7552,1.1872,0.9856,2.1952,0.6944,0.9632,0.2464,-0.1568,-0.1792,4,0,-4,0,0
4000,4000,-0.1568,-0.4032,-0.8064,2.0384,-2.8448,-0.1792,1.3888,-2.352,1.12,2.6432,-0.0224,-1.0528,-0.8064,-0.0896,-0.5152,0.2912,-3,1,-3,0,0
7000,4004,-0.4032,0.3136,-0.5152,-2.2176,0.2464,1.3888,-0.2688,-0.2016,0.0448,-0.224,-2.8224,-1.5904,-0.5152,-0.0448,0.3808,0.0448,2,0,3,0,0
1000,4012,-0.8288,-0.1792,-0.1344,-2.6432,1.68,0.1792,-0.9408,2.8,-0.9856,-0.9408,0.6496,-0.6272,-0.1344,0.2912,0.6272,-0.1344,-7,2,2,0,0
4000,3996,-0.7168,-0.7392,-0.1568,0.3584,1.2544,-1.0528,-1.7472,2.8896,-1.8592,-2.4192,3.024,2.0608,-0.1568,-0.4256,-1.0304,0.2912,4,-1,-3,0,0
4000,4004,1.12,0.0672,0.9632,4.3232,-1.1872,-0.336,1.2544,0.3584,0.6944,0.1792,2.4192,0.9632,0.9632,0.2912,-0.56,0.0672,-2,1,3,0,0
4000,4001,-0.2912,-0.448,-0.336,-1.9264,-2.3296,-0.336,1.5904,-0.6944,2.2848,2.8,-5.2416,-2.8672,-0.336,0.5824,0.8512,-0.0672,1,-2,-1,0,0
4000,4000,-1.3888,-0.6272,-0.9632,-3.7408,-0.4704,-0.448,0.112,-0.672,0.5376,0.7168,-3.1584,-0.896,-0.9632,0.3136,1.0976,-0.0896,2,-1,0,0,0
4000,4005,1.568,2.0832,0.6496,6.6752,2.9344,1.7248,-0.896,1.568,-1.3664,-1.68,0.896,1.68,0.6496,0.2464,0.2912,-0.112,2,2,-3,0,0
4000,4004,0.5152,0.224,0.4704,-3.92,1.7696,0.5824,-2.0608,1.2544,-2.016,-2.576,3.024,-0.0448,0.4704,-0.2912,-1.12,-0.1568,-3,3,1,0,0
4000,4000,1.1424,0.0448,1.232,-4.3008,-1.68,-0.6272,2.2848,-1.6352,1.5456,1.8144,-1.6576,-1.568,1.232,0.112,-0.112,-0.0896,2,0,0,0,0
4000,4008,1.7024,1.344,0.896,3.36,-1.344,1.0304,3.3824,-1.6128,2.912,3.0688,-2.8224,-0.2912,0.896,1.4112,1.5232,0.1792,-2,-1,-1,0,0
4000,4004,1.6352,2.24,0.8512,11.2896,2.0832,1.7472,0.1344,3.2256,0.6272,0.3808,-9.3408,-3.2256,0.8512,-0.9632,0.9408,0.0,-1,2,0,0,0
4000,4001,-1.5904,-1.2992,-1.3664,0.2464,0.5824,-1.2096,-3.3376,3.136,-3.0912,-2.5088,1.7472,0.7168,-1.3664,-1.904,-1.568,0.0896,5,0,1,0,0
4000,4003,-0.1568,-0.5824,-0.2912,4.1888,0.6496,-0.6944,-2.1952,1.4112,-2.3072,-2.6432,5.6,1.0752,-0.2912,-0.5376,-1.1424,0.0672,-2,-1,5,0,0
4000,4002,3.1136,1.904,2.4192,4.6592,-0.0672,0.336,2.9344,-1.1872,2.5312,2.0384,0.0896,-0.9184,2.4192,1.1648,0.6944,0.112,2,1,-4,0,0
4000,4004,0.8512,0.8736,0.224,-0.0224,-1.8368,0.1344,3.2704,-1.904,3.0688,3.92,-1.9936,-1.1648,0.224,1.456,1.232,-0.0448,-6,-5,-3,0,0
6000,4004,-0.6944,-0.0448,-1.2096,6.2048,-0.1344,0.2688,-1.0752,2.352,-1.12,-0.6048,-1.5904,-2.912,-1.2096,-0.9856,-0.5152,-0.112,3,4,1,0,0
2000,4000,-1.3664,-0.6496,-0.9184,1.8816,1.6576,-0.112,-3.5168,3.0016,-3.0688,-4.3008,0.4928,-1.1424,-0.9184,-1.4112,-1.5008,0.0,5,-1,-3,0,0
5000,4008,0.2688,-0.1344,1.008,-6.4288,1.8816,-0.2688,-1.3216,-1.2992,-1.2096,-1.9936,2.128,2.5984,1.008,0.4256,0.3136,-0.0672,-7,-1,2,0,0
4000,4001,1.1872,-0.2464,1.0752,-2.3744,-2.3072,-0.4032,3.2256,-2.4864,2.1504,2.9568,-1.8592,-1.344,1.0752,1.0528,0.7616,-0.224,4,3,3,0,0
3000,4004,0.336,0.3584,-0.0224,3.2256,-1.7472,0.0448,2.6432,1.12,2.2624,3.4944,-0.6496,-1.3664,-0.0224,0.4704,-0.2688,0.2688,-5,-9,-1,0,0
4000,4003,-1.456,-0.6272,-1.4336,2.3968,0.0672,0.0896,-1.1872,0.7168,-0.7168,-1.6352,1.5232,1.3664,-1.4336,-0.1344,-0.0672,-0.0448,0,1,-1,0,0
4000,4002,-0.5376,0.224,-0.0672,0.8064,2.7104,0.4704,-2.2848,1.6352,-1.8144,-4.0992,2.7328,0.1344,-0.0672,0.336,-0.1344,-0.2688,3,1,-1,0,0
4000,4004,-0.6272,-0.9632,-0.1568,-3.8976,0.5376,-0.6272,-1.904,0.1792,-1.456,-1.0528,-3.1136,1.3216,-0.1568,-1.232,-1.1872,0.1568,4,3,3,0,0
4000,4003,0.7616,-0.336,0.3136,-3.0464,-2.5984,-0.9632,1.8368,-3.808,1.344,3.8528,1.3216,2.3296,0.3136,-0.1344,0.1344,0.0672,-7,0,1,0,0
4000,4004,1.6352,1.7248,1.1424,1.4336,-0.112,1.68,2.9344,0.1568,2.912,3.248,-3.6736,-2.576,1.1424,1.456,1.68,0.0672,4,-1,1,0,0
4000,3998,-0.0672,0.672,0.1344,-2.128,0.896,1.4112,0.56,2.016,0.672,-0.112,-1.9264,-1.4784,0.1344,0.9856,1.3664,0.1568,-4,-3,-3,0,0
6000,4011,-2.1728,-1.7472,-1.5456,0.3136,0.6496,-0.8512,-3.2928,2.7104,-3.1808,-3.4944,2.7104,0.3584,-1.5456,-1.008,-1.232,-0.112,3,0,-2,0,0
3000,4002,0.8064,0.4928,1.3664,4.5696,2.1728,-0.1792,-0.8512,2.128,-0.7168,-0.784,-1.68,-0.4704,1.3664,-0.4032,-0.1344,0.0224,0,4,3,0,0
4000,4004,1.4336,0.1568,1.1648,-0.336,-1.9936,-0.6272,2.8448,-2.2176,2.2848,2.5984,0.0896,0.0896,1.1648,0.448,0.336,-0.1568,-1,0,3,0,0
5000,4005,-0.7168,-0.4704,-1.2768,0.9856,-2.4864,-0.112,1.4112,-1.8144,1.456,1.8816,-0.4704,0.4256,-1.2768,0.4928,0.2912,-0.1568,1,1,-5,0,0
2000,3999,-1.7024,-0.7616,-1.7472,-0.8512,-0.0896,0.5152,-2.1504,0.9856,-0.5376,-0.4256,-3.5392,-1.2768,-1.7472,-0.4928,0.112,0.224,0,0,0,0,0
5000,4004,0.0224,0.6048,0.6048,-0.7168,3.2704,0.7616,-1.5904,2.1952,-1.792,-3.0912,-0.4704,-1.0528,0.6048,-0.4256,-0.2464,0.1568,-2,-3,0,0,0
3000,4002,1.568,0.896,2.016,-0.8512,2.6208,0.2912,-0.1792,1.0304,-0.4256,-0.8736,1.008,0.3808,2.016,0.1568,-0.224,-0.2016,0,3,2,0,0
4000,4003,1.344,0.1792,1.0752,-4.9728,-2.4416,0.112,3.136,-4.3232,2.4416,2.8448,-0.0672,1.9488,1.0752,1.344,0.7616,-0.1344,4,1,4,0,0
4000,4004,-1.4336,-1.1648,-1.6352,-3.0688,-3.2032,-1.008,1.0528,-3.3824,0.6496,1.7472,1.6576,1.5008,-1.6352,0.4256,-0.112,0.0672,-6,-2,-5,0,0
5000,4005,-0.7392,0.0448,-0.784,-0.336,0.5376,0.448,-0.5152,0.784,-0.336,-0.5376,-2.5312,-1.0976,-0.784,-0.1344,0.3808,0.4928,7,-1,-1,0,0
4000,4001,-0.3584,0.1568,0.112,-1.344,2.8,0.336,-2.688,1.8144,-2.1952,-3.4496,2.0384,0.8512,0.112,-0.4032,-0.4256,-0.1344,-5,2,-2,0,0
4000,4000,-1.0752,-1.5456,-0.7168,-2.24,-0.672,-2.0608,-1.6128,-1.792,-1.9712,-2.2848,5.2192,2.6432,-0.7168,0.224,-1.0976,-0.1792,3,-4,5,0,0
3000,4000,2.24,1.3216,1.6128,3.1808,-0.5824,0.9856,2.352,-1.1648,2.3744,3.1808,-8.7808,-0.7392,1.6128,-0.896,0.7168,-0.336,-2,8,-2,0,0
4000,4009,-0.8288,-0.6272,-1.456,-3.6288,-3.024,-0.5824,1.2768,-2.8,1.2096,1.5008,2.2624,2.2624,-1.456,-0.112,0.56,-0.0224,2,-2,1,0,0
4000,4000,-0.8288,-0.0672,-0.8736,2.0832,0.3584,0.4032,-0.6944,2.0384,-0.8736,0.0448,6.608,-1.12,-0.8736,0.8288,-0.0672,0.1792,-1,-1,1,0,0
5000,4007,-1.0752,-0.6944,-0.4928,0.7168,1.68,-0.0672,-2.5312,2.9568,-2.6208,-2.3744,3.024,-0.1792,-0.4928,-0.7392,-0.896,0.0672,2,4,-3,0,0
3000,4004,2.0608,1.2768,2.4864,3.4496,2.464,2.0384,0.7616,0.7392,0.7168,0.224,-4.2112,-1.3664,2.4864,0.2016,0.7616,-0.1792,-1,-6,1,0,0
5000,4002,1.6576,0.5824,1.0752,2.6432,-1.5456,-0.1568,2.4192,-2.2176,2.2848,2.7776,-2.4416,0.4256,1.0752,-0.336,0.448,0.1568,1,4,0,0,0
3000,4003,-0.7392,-0.3808,-1.0752,-1.1424,-2.0384,-0.5376,0.5152,-0.8064,0.4032,0.8512,1.0304,-0.6272,-1.0752,-0.4928,-0.5824,-0.0224,-3,-1,1,0,0
5000,4001,-2.1952,-1.4112,-2.1056,-5.0848,-0.9184,-1.5008,-1.9712,-0.4256,-1.792,-2.7328,4.144,2.5088,-2.1056,-0.4256,-0.5824,-0.1344,2,0,-1,0,0
3000,4004,-1.4112,-0.9856,-1.2992,2.6432,1.2992,0.0224,-2.6208,3.3824,-2.5312,-2.3072,6.0704,1.568,-1.2992,0.112,-0.56,0.1344,2,-1,-3,0,0
4000,4005,1.568,0.9184,1.7472,5.7344,2.1728,0.784,-0.2016,2.688,-0.112,-0.6944,-2.128,-2.128,1.7472,-0.3808,-0.5376,0.224,-6,4,0,0,0
5000,4000,2.1728,1.1872,1.7696,-0.9632,-1.3664,-0.4256,3.0464,-3.7184,2.8672,2.7552,-4.5248,-0.784,1.7696,0.4032,0.5824,-0.0896,6,-6,3,0,0
4000,4004,0.2016,0.5376,-0.1344,0.0224,-1.5456,0.6048,2.0832,-0.2912,1.8592,3.0912,-0.9184,-0.9632,-0.1344,1.008,1.2992,-0.0672,1,1,2,0,0
3000,4005,-1.5904,-0.9632,-1.3216,-0.4256,0.2016,0.2688,-1.8592,1.9488,-1.568,-1.12,0.224,0.1792,-1.3216,-0.56,-0.56,0.0672,-5,-2,0,0,0
7000,4004,-0.8736,-0.2688,-0.2016,-3.472,2.128,0.4704,-2.128,1.0304,-1.904,-3.3152,-1.0752,0.224,-0.2016,-0.0672,-0.2016,0.0,4,1,-1,0,0
1000,4007,-0.0896,-0.8736,0.112,0.4256,-0.0672,-0.7392,-0.9184,-1.0752,-1.1648,-1.4784,3.584,0.6496,0.112,-0.3808,-1.0752,-0.0448,-4,-1,-5,0,0
4000,3997,0.336,-0.5824,0.0896,-0.2688,-2.8896,-1.2096,2.0384,-3.2928,1.2544,1.8592,0.1792,0.8512,0.0896,0.0896,-0.4032,0.112,-1,4,5,0,0
5000,4031,-0.7616,-0.3136,-1.12,2.352,-1.7248,-0.1568,0.7616,0.0672,0.8512,1.456,-0.8512,-0.9408,-1.12,0.4032,0.4032,-0.112,3,-1,1,0,0
4000,3978,-1.1648,-0.1792,-0.896,0.9184,0.7392,-0.0448,-1.2768,1.5456,-0.4704,-1.2096,-1.568,-1.008,-0.896,0.3136,0.6944,-0.0224,0,-1,-2,0,0
5000,4000,-0.1344,0.4928,0.4032,1.5456,2.912,0.5376,-1.792,3.5616,-0.7616,-0.6272,-0.112,-1.0528,0.4032,0.7616,0.8288,-0.112,0,-4,0,0,0
3000,4004,1.7024,0.896,1.9936,-2.688,1.8816,0.3808,0.5824,-0.2912,-0.5152,-1.344,0.6272,0.672,1.9936,-0.336,-0.8288,0.0,-3,3,-1,0,0
4000,4005,-0.8512,-1.5456,-0.8736,-3.6064,-3.7856,-2.5536,1.3888,-3.1584,1.0528,1.8368,-0.7392,0.8736,-0.8736,-0.896,-0.9184,0.0672,1,2,3,0,0
4000,4003,0.5152,0.7168,-0.8064,6.5856,-1.456,0.9184,0.8288,-0.336,0.896,2.5312,1.7696,0.9856,-0.8064,0.0448,0.3136,0.1792,-2,-2,-8,0,0
4000,4001,0.9408,1.2544,0.3136,0.7392,1.3888,1.1648,-0.0448,1.1872,-0.0448,-1.0528,0.896,0.4256,0.3136,0.896,0.896,0.0448,7,-2,6,0,0
5000,4004,-1.5008,-1.0752,-0.6944,-4.7712,1.9712,0.224,-2.7776,2.0832,-2.5088,-3.0912,3.0912,1.1648,-0.6944,-0.224,-0.8064,-0.0896,-1,-1,1,0,0
2000,4005,0.6048,-0.0224,0.9184,6.3168,0.56,-0.8512,-0.5376,2.1056,-0.8512,-0.896,3.0016,-0.6272,0.9184,-0.3584,-1.456,0.0672,-5,4,0,0,0
5000,4004,4.48,3.4944,3.4944,13.776,1.0976,1.6352,4.4576,1.1872,4.4128,4.6144,-15.3664,-5.4656,3.4944,-0.1568,1.7248,-0.1344,4,2,2,0,0
4000,4004,0.224,0.6496,-0.2912,2.8,-1.2544,1.0528,1.4784,-0.9184,1.1648,2.0832,-1.68,1.3888,-0.2912,-0.7616,1.1424,0.0224,-4,-1,-6,0,0
4000,4003,-2.0384,-1.232,-1.8592,-3.6736,-0.6944,-0.8736,-1.5456,-0.6048,-1.6576,-1.4784,5.824,3.9872,-1.8592,0.0896,0.0448,-0.2016,3,-1,5,0,0
6000,4033,-0.5824,-0.224,-0.0224,-2.2624,2.464,0.7392,-2.4864,2.4864,-2.1056,-3.024,5.264,-0.6048,-0.0224,-0.0896,-0.8064,0.0672,1,-2,-2,0,0
1000,3993,1.008,0.1792,1.232,-3.696,0.2016,-0.224,0.8064,-1.008,0.5376,0.2912,4.3904,-0.6272,1.232,1.2544,-0.1792,0.0,2,0,-1,0,0
5000,3984,1.3216,0.5152,0.7616,0.8736,-2.3072,0.5152,2.8448,-3.0464,2.4864,2.9568,0.0448,0.896,0.7616,1.008,0.56,0.0448,-5,4,4,0,0
4000,4003,0.0,0.448,-0.1344,-2.2624,-0.6272,1.1424,1.0528,-1.456,1.3888,1.3664,-1.904,0.1792,-0.1344,0.1792,0.8512,-0.1568,2,1,-5,0,0
7000,4003,-1.4336,-0.5376,-1.2096,-1.792,0.8064,-0.6944,-1.9712,1.568,-1.456,-1.1872,-2.016,0.3136,-1.2096,-0.896,-0.3136,0.4032,1,-3,2,0,0
1000,4004,-0.448,-0.2688,-0.0896,0.56,2.5984,-0.5152,-2.8224,2.7552,-2.3072,-3.1584,-2.1056,-1.5904,-0.0896,-1.0752,-1.2992,0.0,-4,2,-2,0,0
5000,4002,0.9408,0.1344,1.12,-0.0896,0.1792,-0.0672,0.7392,0.2464,0.3136,0.4256,0.5824,-0.1568,1.12,0.0896,-0.1344,-0.0672,0,-4,2,0,0
3000,4005,1.568,0.784,1.0752,-0.1568,-1.7024,-0.0448,3.2928,-2.8448,2.8672,3.8528,0.3584,0.2912,1.0752,0.9856,1.2096,-0.0448,-1,3,-1,0,0
4000,3995,-1.2768,-0.784,-1.568,-1.9712,-1.8816,-0.7616,0.2464,-2.0608,0.112,0.112,2.6432,0.784,-1.568,-0.0448,-0.1344,0.1568,5,3,1,0,0
3000,4004,-1.7024,-0.8512,-1.6128,-1.5008,0.2912,0.0672,-2.352,1.1648,-2.016,-2.7104,1.4112,0.9184,-1.6128,-0.672,-0.896,0.112,0,-2,-2,0,0
5000,4001,0.0896,0.4032,0.5376,-0.784,3.0016,0.6944,-2.3072,2.128,-1.6352,-1.68,-1.9936,0.4928,0.5376,-0.6048,-0.5824,-0.1568,1,-3,-1,0,0
5000,4005,1.1424,-0.0224,1.456,-3.4048,-0.112,0.224,1.1424,-0.9856,0.9632,0.5152,1.7024,0.2688,1.456,0.4032,0.0448,-0.112,1,3,2,0,0
3000,4002,0.672,-0.0672,0.3808,3.2928,-2.8448,-1.0752,3.024,-1.0752,2.2176,2.8224,-1.8816,-0.784,0.3808,0.2688,0.224,0.0,-3,-7,2,0,0
4000,4000,0.1344,0.8064,-0.2016,-0.2016,-0.2464,0.9632,1.3664,-0.672,1.2096,1.904,-1.2768,-1.5008,-0.2016,0.6272,1.0304,-0.1344,0,3,2,0,0
4000,4003,-1.2992,-0.56,-1.0528,-1.9712,1.2768,0.8288,-2.3072,1.3664,-1.8368,-1.5904,-1.0304,-0.672,-1.0528,-0.8064,-0.448,-0.112,-1,-1,-6,0,0
4000,4004,-0.784,-0.6048,-0.4704,0.5152,1.8816,-0.2688,-2.8672,2.3968,-1.568,-3.024,1.7024,0.1792,-0.4704,-0.1344,-0.336,0.1568,4,1,4,0,0
4000,4000,0.1344,-0.9632,0.1568,1.232,-0.9632,-1.792,-0.5376,-1.12,-0.9632,-1.9264,6.2944,2.464,0.1568,-0.7168,-1.792,-0.112,-6,2,1,0,0
4000,3997,0.9632,0.4928,0.7168,-1.3216,-2.1056,0.0672,3.0016,-3.3824,1.8368,3.2032,1.1648,0.9856,0.7168,0.448,-0.0448,0.0672,5,-2,-1,0,0
5000,4003,-0.7168,-0.0672,-0.9408,-5.7344,-1.1648,-0.224,0.9632,-2.1056,0.9632,1.568,-3.2704,0.4032,-0.9408,0.4704,0.6272,0.0896,0,-2,1,0,0
2000,4000,0.2688,0.8288,0.2912,-1.7024,2.2624,1.3664,-1.008,0.896,-0.4704,-1.12,-7.5488,-0.5152,0.2912,-0.7392,1.0752,-0.0672,-5,3,-2,0,0
4000,4004,-0.7392,-0.56,-0.0896,1.1872,1.6352,0.2016,-2.0608,2.9344,-1.8816,-2.5312,0.896,-1.2768,-0.0896,-1.008,-1.0976,0.0,6,-1,-2,0,0
4000,4004,0.3136,-0.6944,0.336,3.4048,-1.1872,-1.3888,0.6048,0.3584,0.1792,-0.7168,6.4064,1.008,0.336,-0.1792,-1.0528,-0.112,-3,-3,3,0,0
4000,4003,0.7168,0.224,0.2912,-0.336,-2.24,-0.672,2.2624,-2.9568,1.7696,2.5088,2.5088,-0.1792,0.2912,-0.0224,0.0448,-0.0224,0,9,0,0,0
5000,4002,-1.3888,-0.784,-1.4784,-1.3216,-1.344,0.336,0.0448,-0.784,0.112,1.2992,2.9344,2.5536,-1.4784,0.0672,0.112,0.1792,3,-5,1,0,0
4000,4005,-0.112,0.448,0.0,5.264,2.3968,1.5904,-1.68,2.3296,-1.4784,-1.008,-2.4192,0.5376,0.0,0.0224,-0.0896,-0.2464,1,-1,-3,0,0
4000,4004,-0.1792,0.2016,0.3808,0.224,2.4416,-0.6272,-2.1504,2.3072,-1.7472,-2.3968,-2.0832,-1.456,0.3808,-0.6272,-1.1872,0.0224,-7,0,4,0,0
4000,4002,0.1792,-0.8736,0.448,-3.7184,-1.568,-1.232,0.9632,-2.016,0.2688,0.0,2.688,0.4256,0.448,-0.1344,-0.5376,0.224,1,-1,-7,0,0
4000,4002,2.0384,1.232,1.4112,1.8816,-1.3216,1.6128,3.9424,-1.1872,3.248,3.7184,-7.0112,-3.8528,1.4112,0.2464,1.5232,-0.1792,1,3,5,0,0
3000,4004,-0.448,0.0448,-0.4704,-1.7472,-0.5152,0.3584,0.448,-0.224,0.4928,0.2912,1.2992,-0.1792,-0.4704,0.4704,0.224,0.2464,3,-2,-4,0,0
5000,4004,-0.4032,0.3584,-0.0224,-0.1792,2.0384,1.2544,-1.4112,3.3152,-0.9632,-2.576,-0.9632,-0.6048,-0.0224,0.0896,-0.1792,0.1568,-3,0,4,0,0
4000,4003,0.0896,0.4256,0.6272,3.92,2.688,-0.1568,-2.1504,3.9872,-1.5904,-1.792,-1.1648,-1.2096,0.6272,-0.9408,-0.8288,0.0448,5,-1,0,0,0
4000,4003,0.8064,-0.4256,0.6048,-2.5088,-1.3216,-0.672,1.0976,-2.1504,0.448,1.5904,3.5168,1.5008,0.6048,0.0896,-0.5824,-0.2016,-8,1,-1,0,0
4000,4003,0.4256,-0.0672,-0.1792,0.2464,-2.7104,-0.2464,2.3296,-1.6576,1.8368,2.5312,-1.4784,-0.2016,-0.1792,0.0896,0.0224,-0.2464,6,7,4,0,0
4000,4006,-0.3808,0.2464,-0.56,0.2016,-0.336,0.336,0.8736,2.016,0.784,0.672,-2.8448,-1.2096,-0.56,0.3808,0.7392,0.1568,-6,-7,-2,0,0
5000,4001,-1.0752,-0.336,-0.56,2.3072,1.9488,-0.1344,-2.4192,3.3376,-1.8816,-2.9792,-0.784,-1.7248,-0.56,-0.7392,-0.8064,0.0896,9,4,0,0,0
3000,4004,-0.56,-0.6496,0.1792,1.232,1.68,-0.112,-2.2848,2.2848,-1.9488,-2.912,1.2992,-0.4704,0.1792,-1.0304,-1.3216,-0.0896,-9,-7,-4,0,0
4000,4004,0.1568,-0.7168,0.2016,-0.2464,-2.0384,-1.1648,0.9184,-1.4784,0.2016,0.9856,4.9056,1.9264,0.2016,-0.0672,-1.008,-0.112,5,3,2,0,0
4000,4003,1.3888,0.9632,0.896,-0.1568,-1.456,0.7168,3.3824,-3.2928,2.9568,3.3824,-1.5904,1.1424,0.896,1.2096,1.2096,-0.112,2,3,-1,0,0
4000,4004,-0.1568,0.5376,-0.336,0.5152,0.1568,0.0,0.4928,0.1568,0.8064,0.896,-2.1728,0.0448,-0.336,0.112,0.6944,0.4256,-2,-1,1,0,0
5000,4002,0.2688,0.9184,0.2912,1.344,2.7552,1.2544,-1.1424,2.8672,-0.6944,-1.5008,-0.672,-2.1056,0.2912,-0.2016,0.336,-0.112,-2,2,-1,0,0
3000,4003,-0.5152,-0.5376,0.0448,-3.6736,2.1728,0.448,-2.1728,0.4928,-1.5008,-1.344,-1.2096,0.2464,0.0448,-0.5152,-0.672,-0.112,-3,1,1,0,0
4000,4005,-1.2544,-2.352,-1.3216,-5.936,-3.3376,-3.6064,-0.56,-2.8896,0.224,0.112,0.6944,0.9632,-1.3216,-0.56,-1.0528,-0.112,5,-3,-3,0,0
4000,4003,1.1872,0.9408,0.7392,-0.0896,-1.4112,0.8736,3.0688,-2.7552,1.8144,1.8144,1.6128,0.224,0.7392,0.448,-0.112,0.1568,-2,2,2,0,0
4000,4004,-0.4032,0.2016,-0.5152,-0.112,-0.336,1.2544,0.7392,-0.5376,0.4928,0.56,3.3824,0.5824,-0.5152,0.6944,0.4704,0.224,4,0,0,0,0
4000,4012,1.0752,1.792,1.1872,5.3536,4.2112,2.4192,-1.0752,2.7552,-0.4256,-1.5904,-4.1664,-1.1872,1.1872,-0.112,1.0752,0.0224,-4,-2,-1,0,0
4000,4000,-0.7392,-0.7168,0.0896,-4.3456,1.344,-0.5824,-1.8816,0.5152,-1.5904,-1.6128,0.6944,2.3072,0.0896,-1.1424,-0.9632,-0.2912,-4,-2,2,0,0
4000,3999,-0.2016,-1.2544,-0.2464,-0.3584,-2.7104,-1.9488,0.6496,-1.4112,0.224,0.8736,0.5824,1.5904,-0.2464,-0.6944,-1.2768,0.112,4,1,3,0,0
4000,4000,1.12,0.8288,0.56,-3.3152,-1.8592,0.4704,3.584,-3.0464,3.0016,3.4048,1.0752,0.7168,0.56,1.9488,1.4336,0.0,0,0,-4,0,0
4000,4003,-0.9408,-0.1568,-0.9408,2.7328,-0.0896,-0.0672,-0.6496,1.1872,-0.5152,-0.0672,4.48,0.9408,-0.9408,0.6272,-0.3584,0.0896,0,-1,3,0,0
4000,4003,-0.4256,0.1792,-0.224,5.4208,2.2624,0.4032,-2.2848,4.1664,-1.7696,-1.8368,-1.8368,-2.3072,-0.224,-0.8064,-0.6048,0.0224,0,1,-4,0,0
4000,4002,2.1952,1.9712,2.6432,1.3664,4.1664,2.8896,0.224,2.5088,0.5152,-0.2016,-6.16,-1.5904,2.6432,-0.0224,0.7616,-0.1792,2,-3,1,0,0
4000,4006,0.4032,-0.5152,0.448,-1.2544,-1.9936,-1.7696,1.5232,-3.248,0.8736,1.68,0.0448,1.0976,0.448,-0.9856,-0.7392,0.0896,-4,0,2,0,0
5000,4003,-0.224,-0.5152,-0.784,-2.5984,-2.7104,-0.7392,1.5456,-4.6368,1.2768,2.128,-0.672,2.24,-0.784,-0.9632,0.3584,-0.0896,3,3,1,0,0
3000,4003,-2.1728,-1.5904,-2.2848,-4.6368,-1.8592,-1.0528,-1.2096,-1.2768,-1.2096,-2.2848,4.032,2.1056,-2.2848,-0.4928,-0.5376,-0.1568,-1,-1,-1,0,0
4000,4001,-0.1344,0.6496,0.4032,0.0896,2.8,1.4336,-1.7024,3.8752,-1.232,-2.3744,-3.6736,-3.3824,0.4032,0.112,-0.6048,-0.0672,-1,0,0,0,0
4000,4006,0.2016,0.2016,0.8736,-1.792,2.464,0.6944,-1.5232,0.5824,-1.1872,-1.9488,2.1056,-1.3888,0.8736,-0.2016,-0.9408,0.112,-1,1,-4,0,0
4000,4003,1.1424,-0.0448,0.9184,1.1648,-1.9488,-1.0304,2.4864,-2.016,1.9712,2.464,1.1872,0.2912,0.9184,0.5152,0.1344,0.3136,3,-1,3,0,0
4000,4002,0.4256,0.2464,-0.0224,2.9344,-1.7472,-0.0448,2.352,-1.3664,2.2624,4.0768,-2.8224,-0.0896,-0.0224,0.448,0.6272,-0.0896,0,-4,1,0,0
3000,4004,-1.3888,-0.7392,-1.5456,-2.0384,-0.6272,-0.2912,-0.9856,0.0672,-0.9184,-0.8512,0.2912,0.3136,-1.5456,-0.6048,-0.6496,0.224,-1,4,0,0,0
5000,4004,-0.9856,-0.2688,-0.5376,-1.2544,2.0832,1.1648,-2.5536,2.576,-1.9936,-3.3376,3.6064,-0.0224,-0.5376,0.0672,-0.896,-0.2688,1,1,4,0,0
4000,4000,1.6128,1.3216,2.1504,4.2112,3.2704,0.5152,-0.4704,3.0016,-0.2912,-1.5232,0.7168,-1.8368,2.1504,0.0896,0.0224,0.0,1,-1,-7,0,0
4000,4006,1.0304,-0.1568,0.9408,3.3376,-1.7696,-0.9856,1.9936,-1.5904,1.4784,2.8,-1.2768,0.896,0.9408,-0.784,-0.112,-0.1568,-3,0,-2,0,0
6000,4001,0.4256,0.5152,-0.224,2.6432,-1.8592,0.784,2.3744,-1.792,2.016,3.248,-4.9952,-0.784,-0.224,-0.112,0.4256,0.0448,0,3,7,0,0
1000,4003,-0.2912,0.3584,-0.2464,-3.2704,0.4032,0.56,0.3584,0.1568,0.56,-0.1568,-0.2912,-0.6272,-0.2464,0.7168,0.4928,-0.0224,2,-4,-1,0,0
5000,4003,-0.1568,0.5376,0.3584,1.7696,3.3376,1.344,-1.7248,3.7184,-1.0528,-2.4192,-0.1568,-1.8592,0.3584,0.2688,0.0896,0.0896,4,10,-3,0,0
4000,4006,-0.4704,-0.9184,0.2688,1.7696,1.12,-1.4112,-1.792,2.688,-1.7248,-1.792,0.2688,-0.896,0.2688,-0.8288,-1.5904,0.0,-5,-3,-1,0,0
3000,4003,0.3584,-0.896,0.2912,-1.3216,-2.3744,-2.4192,1.0976,-2.2848,1.8144,1.8144,-2.464,-0.2464,0.2912,-0.0224,-0.1344,-0.0672,-1,-6,-2,0,0
5000,4001,1.2544,1.344,0.6272,-2.5536,-1.2992,2.0832,3.808,-2.1952,3.0464,2.6208,-2.2624,0.4256,0.6272,1.4336,1.3664,-0.2688,-4,4,8,0,0
5000,4009,0.4704,1.4784,0.336,1.9264,1.7248,2.1728,0.5824,1.008,0.2688,0.6496,-3.696,-1.6352,0.336,-0.1568,0.5376,0.0896,5,-4,-4,0,0
3000,3997,-0.3136,0.2688,0.0,1.008,2.5312,0.8288,-2.1056,3.0688,-1.7248,-1.232,0.1792,-1.904,0.0,-0.784,-0.6496,0.0672,1,2,1,0,0
4000,3999,-1.0304,-1.7024,-0.448,0.0448,-0.0448,-1.6576,-2.016,2.6432,-2.1728,-3.136,3.7856,0.9632,-0.448,-0.9184,-1.7472,0.2688,-1,-1,2,0,0
4000,4006,-0.0448,-1.2768,-0.1792,0.4704,-3.0464,-1.8368,1.0752,-2.2176,0.5152,-0.0448,2.9568,1.6352,-0.1792,-0.6048,-1.5904,-0.2688,-1,-2,1,0,0
4000,4004,-0.1344,-0.0896,-0.56,1.7696,-1.8368,-0.0672,1.2992,-2.912,1.2992,1.8144,-1.1424,1.1872,-0.56,-0.0672,0.0,0.1344,-2,3,-2,0,0
4000,4006,1.2096,2.016,1.232,2.464,2.4416,2.0608,0.896,1.2096,1.0976,1.5232,-4.5248,-1.8592,1.232,0.8512,1.568,0.0448,1,3,-4,0,0
4000,4000,-1.4336,-0.8512,-1.12,1.0304,1.4336,-0.448,-3.0688,2.8896,-2.6656,-2.9792,-0.8736,-2.2848,-1.12,-1.8368,-1.6576,0.0896,-1,-5,5,0,0
5000,4005,-1.4112,-1.7696,-1.12,-2.9344,-0.4704,-1.2096,-2.3296,-0.8288,-2.2848,-2.1056,5.1744,3.3152,-1.12,-1.4112,-1.9264,0.224,1,1,-5,0,0
6000,4004,1.3216,0.224,1.008,-2.1504,-1.4784,-0.7392,2.2624,-3.808,2.1504,2.128,-3.0016,2.3744,1.008,-0.1568,-0.1344,-0.1792,4,2,1,0,0
1000,4004,0.6496,0.8064,0.0672,-2.1504,-1.5456,-0.112,2.9792,-3.4272,2.8224,3.9424,-4.9504,0.448,0.0672,0.5152,1.2992,-0.0448,-2,1,0,0,0
4000,4002,-0.4928,0.4032,-0.56,-0.4032,0.8064,0.896,-0.0672,0.0224,-0.0448,0.4256,1.456,-0.1344,-0.56,0.3808,0.6496,-0.0896,-1,3,-1,0,0
4000,4003,-1.456,-0.8736,-1.008,0.0672,1.344,-0.0448,-3.3152,1.0752,-2.8,-3.8752,2.2624,0.8064,-1.008,-0.8512,-1.12,-0.0448,-3,-7,2,0,0
4000,4005,-0.2016,-0.6496,0.2688,-0.6048,0.9184,-0.3584,-1.7024,0.3584,-1.4336,-2.4416,3.808,0.3584,0.2688,-1.0528,-1.2992,-0.0224,7,3,-2,0,0
4000,4002,1.232,0.112,0.9408,-0.1344,-2.016,-0.6272,2.4416,-1.792,1.9712,1.7248,3.1808,0.672,0.9408,0.336,-0.3584,-0.1792,-3,-1,4,0,0
4000,4002,-0.4256,-0.2016,-0.8064,0.1568,-2.2624,-0.448,1.456,-0.672,1.2768,1.904,-1.9936,-0.2688,-0.8064,0.1568,0.0,0.1568,1,0,-1,0,0
4000,4002,0.2464,0.896,0.2016,-0.8064,1.2544,1.6352,0.2912,0.8512,0.2464,0.672,-0.9856,-0.8512,0.2016,0.6272,0.5824,0.224,-2,4,1,0,0
4000,4016,-0.6048,-0.112,-0.2464,1.3888,2.4864,0.6272,-2.4416,1.9264,-2.1056,-3.0688,-1.4784,-0.5152,-0.2464,-0.672,-0.9632,0.0672,1,-3,1,0,0
4000,3999,0.9408,0.2688,1.2544,-0.0672,1.8368,-0.0448,-0.4256,0.0,-0.5824,-1.2992,1.8368,0.7392,1.2544,-0.0448,-0.4256,-0.2912,2,-1,0,0,0
4000,3999,0.9856,-0.1568,0.784,0.784,-2.2624,-1.1872,2.7552,-1.7248,2.1504,3.3152,-0.1792,-0.4256,0.784,0.0896,-0.112,0.1344,-2,-5,-4,0,0
4000,4001,-0.5376,-0.2464,-0.6944,-3.024,-2.1952,-0.3808,1.7248,-2.0608,1.5232,2.016,0.5376,0.7616,-0.6944,0.4256,0.224,0.0448,3,4,0,0,0
4000,4009,0.0224,0.8288,0.0896,-1.12,1.7472,2.912,-0.4704,0.0224,-0.0896,-1.3664,-0.9184,-0.7168,0.0896,0.3584,0.56,-0.0672,-1,0,1,0,0
4000,3999,-0.8512,-0.2016,-0.0672,-1.7024,2.352,0.0672,-1.8816,3.8752,-1.6352,-1.7024,0.448,-1.4112,-0.0672,-0.336,-0.5152,-0.0672,3,-1,-4,0,0
7000,4003,-1.0752,-1.8368,-0.4032,-2.9568,-0.224,-3.5392,-1.7024,0.56,-1.8816,-2.1504,2.5088,0.112,-0.4032,-0.784,-2.0608,0.0896,-2,3,5,0,0
2000,3997,0.7168,-0.336,0.336,-1.1424,-2.576,-0.448,2.1504,-2.7328,2.3072,2.016,0.2912,1.1872,0.336,0.3136,-0.1568,-0.1568,-3,-2,1,0,0
3000,4005,-1.0528,-0.6272,-1.6352,3.9648,-2.576,0.5376,0.448,-0.1344,1.568,0.9632,-6.384,-0.1344,-1.6352,-1.2096,0.336,-0.1792,3,4,0,0,0
5000,4001,0.6496,1.4784,0.7616,5.1296,2.3968,1.7248,0.4032,1.9488,-0.56,0.6496,-2.128,-1.568,0.7616,-0.8288,0.1792,0.0896,0,-5,-3,0,0
3000,4004,-0.8064,-0.3136,-0.2688,-1.5232,2.4192,0.0448,-2.4192,1.2768,-2.1504,-2.7552,2.0384,-0.112,-0.2688,-0.7168,-0.8064,0.2016,-6,0,1,0,0
4000,4006,1.7248,1.0304,2.1728,1.0528,2.3296,0.8288,0.896,1.2992,0.6944,-1.0976,3.2704,-0.1568,2.1728,0.784,0.1344,-0.0448,5,3,-1,0,0
8000,4001,1.1424,0.0448,0.896,0.0672,-2.7552,-0.896,3.3376,-2.2848,2.5536,3.4048,2.2848,1.1872,0.896,0.8512,0.0672,-0.0896,-4,1,3,0,0
2000,4011,-0.2912,-0.1344,-0.7168,1.9488,-1.6352,0.3136,0.9184,-1.456,0.9184,0.9856,-2.576,-0.1568,-0.7168,-0.1344,-0.0672,0.1568,-3,-1,3,0,0
2000,3999,-0.3584,0.0896,-0.1344,-2.8224,1.9488,1.3664,-1.12,0.448,-0.7392,-0.8736,1.2544,-0.2016,-0.1344,0.0672,-0.1344,-0.0896,-2,0,0,0,0
4000,4000,-1.9712,-3.2704,-1.3664,-4.1888,0.9408,-1.568,-2.9792,1.344,-2.688,-2.5312,0.1344,-0.1792,-1.3664,-1.4112,-1.2544,-0.2912,6,0,-1,0,0
4000,4002,2.1504,0.336,2.3296,1.1648,1.9264,1.232,1.568,1.232,1.2544,0.9856,-2.8896,-1.008,2.3296,0.4928,1.2096,0.0448,2,1,-4,0,0
3000,4003,1.456,0.336,1.3216,0.3584,-1.7472,0.672,3.0688,-1.8144,2.3968,3.4272,1.9264,-0.672,1.3216,0.56,-0.0672,0.448,0,-1,-4,0,0
5000,4003,-0.2688,-0.2016,-0.2464,-1.7024,-1.4112,-0.4928,1.4784,-0.56,1.0976,0.6496,-1.5008,-0.784,-0.2464,0.1792,0.112,0.0448,2,-3,3,0,0
4000,4004,-0.112,0.3808,0.0448,-0.6496,1.4336,1.3888,-0.0672,1.9936,0.3136,-0.8288,-2.2176,-0.8512,0.0448,0.6496,0.8512,-0.2688,-4,0,0,0,0
4000,4003,-0.2464,0.1792,0.0224,2.6656,2.6656,1.0528,-2.0384,3.1136,-1.8592,-1.1648,1.344,-1.7696,0.0224,-0.5376,-0.4704,0.0224,1,4,-3,0,0
4000,4003,0.6944,-0.1568,1.0304,2.4192,0.8512,-0.4928,-0.672,0.3808,-0.896,-1.4112,1.7472,0.0672,1.0304,-1.0528,-1.1424,-0.1344,-3,-1,4,0,0
4000,4002,0.9184,-0.2016,0.448,0.2912,-2.7552,-0.2464,2.6208,-2.9792,2.128,2.4416,-0.4256,1.792,0.448,0.4928,-0.2464,0.2912,4,0,0,0,0
4000,4006,-0.5824,-0.2688,-1.0752,-1.0304,-1.7696,-0.3808,1.0752,-1.8816,1.1872,1.8368,-0.9856,-0.0224,-1.0752,0.336,0.4032,0.1568,3,-1,-2,0,0
4000,4002,-0.7616,0.1568,-0.5152,-3.136,1.5456,1.1648,-1.0304,0.0896,-0.6496,-2.464,2.2176,-0.6048,-0.5152,0.56,0.1344,-0.0224,-6,3,-2,0,0
4000,4003,-0.2016,0.2912,0.3584,0.784,3.4944,1.12,-2.2624,3.2928,-1.5456,-1.8144,1.6576,-1.2992,0.3584,-0.0896,-0.5376,-0.2912,1,-7,6,0,0
4000,4002,1.1872,0.0448,1.3216,1.9712,0.6496,-0.672,0.1792,0.784,-0.1344,0.3808,-6.5632,-2.24,1.3216,-1.456,-1.008,0.0,1,1,-4,0,0
3000,4003,1.232,0.3584,1.0304,1.3888,-2.24,-1.008,3.472,-1.8592,2.7104,3.2928,-2.9568,-0.5824,1.0304,0.1568,-0.1344,-0.0672,-1,4,3,0,0
4000,4001,-1.1872,-0.7392,-1.456,-2.8,-1.9488,0.0672,0.7392,-0.8512,0.7168,0.1344,2.8224,1.3888,-1.456,0.2912,-0.2464,-0.0224,-1,-3,1,0,0
7000,4006,-0.6048,0.1792,-0.448,-1.2096,1.5456,1.0976,-0.896,2.0832,-0.5152,-1.1872,0.784,-1.7024,-0.448,0.4032,0.1568,0.0672,2,2,-3,0,0
1000,4012,-0.1344,0.1792,0.2464,1.7248,2.7552,0.5824,-2.5312,2.3072,-2.016,-2.1056,-4.2336,-0.6944,0.2464,-1.3664,-0.6496,0.1568,3,-3,1,0,0
4000,3994,0.672,-0.3136,0.8288,-1.1648,-0.1792,-1.1872,-0.1568,-2.1952,-0.2688,-0.8064,-0.1792,2.6208,0.8288,-0.8064,-0.56,0.0,0,1,-5,0,0
5000,4002,-0.2464,-1.0528,-0.5152,-2.8224,-3.7856,-2.7776,2.5984,-3.9872,1.9712,3.472,6.2272,2.912,-0.5152,0.3584,-0.4704,-0.1792,4,1,5,0,0
4000,4003,-2.7328,-2.3296,-3.2032,1.1872,-3.36,-0.5152,-1.1648,-1.1872,-0.4256,-0.0896,1.5232,-0.0672,-3.2032,-0.448,-0.8736,0.1344,-15,-2,-2,0,0
4000,4005,0.7392,1.3888,0.8064,4.4576,2.9568,2.464,-0.7392,3.024,-0.112,-1.12,-6.272,-4.032,0.8064,-0.6944,0.448,0.0672,6,2,3,0,0
4000,4004,1.5456,1.8368,1.904,-2.6208,4.1888,2.1728,-0.4256,0.7392,-1.0304,-2.3296,2.5088,0.6944,1.904,0.4256,0.3136,-0.336,5,0,1,0,0
4000,4002,-0.6272,-1.5008,-0.2688,-5.5328,-1.568,-2.4416,-0.3136,-3.1584,-0.9408,-0.8512,4.2336,2.464,-0.2688,-0.3584,-1.568,0.224,-5,-3,2,0,0
3000,4006,0.0896,-0.4704,-0.3584,0.448,-3.2256,-1.9712,1.9264,-3.0688,1.3888,3.0688,1.0528,0.5824,-0.3584,-0.4704,-0.672,0.2464,0,-4,-5,0,0
5000,4000,1.232,1.7024,0.8288,4.3232,0.9632,3.5168,1.8144,1.0304,1.9488,2.128,-4.0992,-1.008,0.8288,0.2016,1.2768,-0.336,2,7,3,0,0
4000,4004,-1.2768,-0.7392,-1.0528,-3.92,0.2912,-0.224,-1.2768,0.4256,-1.232,-1.9936,4.7488,2.0832,-1.0528,-0.1344,0.0672,-0.0224,1,-4,-1,0,0
4000,4004,0.3808,0.672,0.7392,0.224,3.248,1.2992,-1.6576,2.0608,-1.0528,-3.4944,-2.576,-1.68,0.7392,0.1568,0.0,0.1568,-1,5,2,0,0
4000,4005,1.1424,0.1568,1.232,-1.1424,0.5824,-0.3136,0.1792,-0.8736,0.2688,0.336,-2.6432,0.2688,1.232,-0.7616,-1.008,-0.112,-3,0,-2,0,0
4000,4003,0.0448,-0.6496,-0.4256,-3.6736,-3.3152,-1.3216,2.6208,-4.1664,2.0608,2.8448,-0.9408,0.9632,-0.4256,0.2016,0.0224,-0.0448,6,-2,3,0,0
4000,4016,-0.3808,0.2016,-0.8288,1.4112,-0.8512,0.5152,1.232,0.2464,1.0304,3.248,0.9408,-1.5008,-0.8288,0.6496,0.6048,0.1568,-1,1,-5,0,0
4000,4000,0.2688,0.8512,0.224,0.3584,2.464,1.456,-1.008,2.128,-0.7168,-0.6048,-1.568,-0.4032,0.224,0.2016,0.672,0.112,-2,4,6,0,0
4000,4000,-0.7392,-0.672,-0.1568,-1.5232,1.7472,-0.8512,-2.4864,1.6352,-2.1504,-3.9872,1.2096,0.448,-0.1568,-0.6944,-1.008,-0.0448,8,-2,-5,0,0
4000,4001,0.6496,-0.448,0.8736,1.0752,-0.6496,-1.4112,0.4256,-1.232,-0.2016,-1.1648,0.0896,-0.2912,0.8736,-1.12,-1.0528,0.0,-6,5,-3,0,0
4000,4000,1.7248,1.12,1.1872,4.6592,-1.008,1.4112,3.136,-0.4928,3.0688,4.9504,-4.8384,-1.5456,1.1872,0.1792,0.336,0.112,-2,-2,2,0,0
4000,4005,-1.4336,-0.896,-1.6352,-1.8592,-1.68,-0.56,-0.5152,-0.6272,-0.3808,-0.6944,1.4336,0.9856,-1.6352,-0.4256,-1.12,-0.112,-1,-6,-2,0,0
4000,4000,-0.672,0.112,-0.2464,-2.464,1.456,0.2912,-1.0976,1.6576,-0.784,-2.0384,0.4928,-1.1424,-0.2464,0.2688,0.1568,-0.336,3,1,0,0,0
4000,4004,0.0448,0.4928,0.5376,1.6352,2.6208,1.2544,-0.672,3.2704,-0.5824,-0.3808,-1.456,-1.4336,0.5376,0.0224,0.8064,0.0,0,2,4,0,0
4000,4006,1.0528,0.112,1.0976,-0.4032,0.2016,-0.336,0.5376,-1.344,0.3808,0.1792,0.3136,0.448,1.0976,-0.448,-0.5824,0.1568,1,-4,-2,0,0
4000,4001,-0.2464,-0.8288,-0.4704,-5.4656,-3.4272,-1.0976,1.7472,-4.3904,1.3216,1.7696,-0.0896,1.7024,-0.4704,-0.0224,-0.5152,-0.0896,-2,5,4,0,0
4000,4004,-1.2096,-0.7168,-1.344,-1.7472,-1.5904,-0.896,-0.0672,-0.5824,-0.0672,-0.2688,-0.0672,-0.3136,-1.344,-0.3136,-0.6048,0.0896,-2,-4,-3,0,0
4000,4001,0.0448,0.896,0.2464,2.4416,2.3968,1.5232,-0.56,1.9936,-0.2912,-0.8512,-2.3968,-2.3072,0.2464,0.448,0.56,0.2688,1,-3,0,0,0
6000,4004,1.12,0.9408,1.5456,2.8448,3.4944,1.68,-0.8512,2.5312,-0.672,-1.456,0.3584,-0.784,1.5456,0.6048,0.5152,0.0672,2,4,-1,0,0
2000,4005,0.56,-0.4032,0.7168,3.9424,-0.7168,-1.4112,0.1568,0.3808,-0.1344,-0.1344,2.2848,0.2464,0.7168,-0.9408,-1.3664,-0.4032,-5,0,-2,0,0
4000,3998,0.5376,-0.0896,0.0896,-2.7776,-2.6432,-0.7616,2.4416,-2.9792,1.8592,2.7328,1.4336,0.0896,0.0896,-0.1568,-0.2688,0.1344,3,0,5,0,0
6000,4013,-0.8512,-0.2912,-1.2992,-4.5472,-1.568,-0.4704,1.0752,-2.352,0.8736,0.9408,1.232,1.1648,-1.2992,0.6944,0.5824,0.2912,-1,0,-5,0,0
2000,4000,-2.1056,-1.4784,-2.0384,-1.9712,0.672,0.56,-3.3824,1.456,-1.7472,-2.576,2.464,1.5008,-2.0384,-0.112,-0.5152,-0.1344,3,1,4,0,0
4000,4002,0.3136,0.6048,0.9184,0.9632,3.1808,1.1648,-1.5008,3.4272,-1.3888,-2.8,-2.576,-0.9856,0.9184,-0.7616,-0.4928,-0.2464,-5,3,0,0,0
4000,4011,1.3888,0.6048,1.7248,0.7616,-0.3584,-0.8512,2.1504,-0.224,1.2096,1.4336,-2.24,0.3584,1.7248,-0.1344,0.112,0.0672,5,0,-3,0,0
4000,3996,0.8512,0.5824,0.336,3.3376,-1.7024,0.0224,2.0384,-2.1728,1.8816,2.576,-3.472,-0.5376,0.336,0.1344,0.1568,-0.2016,-4,-5,-1,0,0
4000,4003,-0.7616,-0.1344,-0.7392,0.896,-0.336,0.5376,-0.0448,0.3584,0.2016,0.784,-4.1216,-2.464,-0.7392,-0.448,-0.4928,0.224,1,0,6,0,0
4000,4004,-0.1344,0.3136,0.1344,1.7472,2.1728,1.0528,-1.232,2.2624,-1.0752,-1.1648,-1.7696,-1.68,0.1344,-0.5152,-0.0448,0.112,-1,-5,0,0,0
4000,4005,0.896,0.9184,0.9408,0.2912,2.3296,0.4256,-0.5152,1.2544,-0.5824,-1.3216,3.248,0.1792,0.9408,0.3808,0.2016,-0.1344,2,-2,-2,0,0
4000,4003,0.3136,-0.5824,0.2912,-2.8448,-1.1872,-0.9856,0.3584,-2.7776,0.0896,0.448,3.5392,0.3584,0.2912,-0.3136,-1.1872,-0.0896,1,5,2,0,0
4000,4002,0.224,-0.1568,-0.3584,-2.0384,-2.8224,-1.2544,2.3968,-2.3744,2.128,3.0688,-3.7856,0.0,-0.3584,0.2016,0.2688,-0.112,-1,1,-1,0,0
4000,4000,-0.7392,-0.2016,-0.6944,-1.6128,-0.3584,0.9184,0.448,-0.224,0.336,0.0,-2.5312,-0.2688,-0.6944,0.112,0.448,0.336,4,4,2,0,0
5000,4007,-0.4928,0.112,-0.0896,-3.5168,1.6352,0.56,-0.896,-0.5824,-0.9408,-2.6208,5.2864,2.128,-0.0896,1.1648,0.8736,-0.0896,-1,-2,0,0,0
3000,4004,0.1344,0.0224,0.6272,3.8752,2.352,0.1568,-1.6352,2.576,-1.6576,-2.1952,2.8896,-1.9712,0.6272,-0.4928,-1.0976,-0.0672,-7,2,1,0,0
4000,4002,3.248,2.0832,3.0688,7.6832,1.568,2.1952,2.464,1.008,2.2624,2.6208,-3.5616,-2.1056,3.0688,0.0,0.448,-0.0224,11,-1,-8,0,0
5000,4003,0.7168,0.4704,0.3584,1.904,-2.1728,-0.5824,2.7328,-0.7168,2.5088,3.2928,-0.8736,-0.2016,0.3584,-0.1344,0.5824,0.112,-9,-1,4,0,0
3000,4006,-1.4112,-0.56,-1.5008,1.792,-0.896,0.0224,-0.4928,1.8144,-0.224,-0.1344,-0.7392,-0.7168,-1.5008,-0.4032,-0.4704,-0.2688,-1,3,2,0,0
5000,4002,-1.5232,-0.784,-1.1424,-0.1792,1.2992,0.0448,-2.5984,2.9792,-2.1728,-2.2624,1.2768,0.4928,-1.1424,-0.6048,-1.0752,0.0,-1,-3,-3,0,0
3000,4004,0.1568,0.0448,0.5152,-2.1056,2.3968,0.112,-1.5456,1.232,-1.5008,-2.7328,2.4416,1.4112,0.5152,0.0448,-0.5824,-0.0672,4,5,-2,0,0
4000,4005,1.4784,0.336,1.4784,-4.0768,-1.1872,-0.3808,2.4864,-3.9424,1.9264,2.2848,-1.1648,0.336,1.4784,0.5824,0.6048,-0.0224,3,-2,3,0,0
4000,4004,-0.0448,-0.4704,-0.6048,-4.1216,-3.0016,-0.448,2.2176,-5.04,1.904,2.3072,0.112,2.0832,-0.6048,0.7616,0.3136,0.3136,-3,-5,-1,0,0
4000,4002,-1.2096,-0.448,-1.4336,-1.2768,-0.56,0.2912,-0.56,-1.3664,-0.3584,-0.6048,1.3216,1.2768,-1.4336,0.448,-0.0896,0.224,-4,1,4,0,0
4000,4004,0.1792,0.5376,0.3136,0.672,2.8224,0.6496,-1.6128,1.1872,-1.1424,-1.9488,-3.1136,-0.8512,0.3136,-0.4032,0.4704,-0.1792,9,5,-2,0,0
4000,4004,0.0224,0.0224,0.7616,2.0384,2.1056,-0.2688,-1.68,1.12,-1.5008,-1.8592,1.8816,0.7616,0.7616,-1.008,-0.5824,-0.3808,-3,-2,-1,0,0
4000,4001,1.7696,0.6048,1.792,3.9872,-0.5824,-0.4256,2.3296,-0.224,1.8592,1.8592,-4.3232,-1.8144,1.792,-0.6048,-0.1568,0.112,-1,-6,-2,0,0
4000,4004,-0.784,-1.0528,-1.2544,-0.0224,-3.472,-0.896,1.568,-1.456,1.1872,2.4416,1.5456,1.9264,-1.2544,-0.112,-0.3584,0.2016,1,9,1,0,0
5000,4011,-0.0448,0.896,-0.336,2.6208,0.784,2.0832,-0.1568,1.68,0.224,0.5376,-1.904,-1.5008,-0.336,0.2688,0.4928,0.1792,0,-1,-2,0,0
3000,3997,-0.8512,-0.112,-0.4928,-0.4032,2.0384,-0.4256,-2.1952,3.0016,-1.1872,-2.6208,-3.36,-2.3072,-0.4928,-0.8064,-0.1792,-0.112,0,-1,3,0,0
4000,4004,-0.672,-0.9184,-0.2688,-0.8064,1.2096,-1.3664,-2.3296,2.4192,-1.1424,-3.1136,2.8448,-0.8736,-0.2688,0.4256,-1.2768,-0.1568,0,0,0,0,0
4000,4004,2.912,1.7248,2.8672,-1.7024,0.1344,1.4784,3.7632,-3.7856,2.352,1.9936,-0.4256,1.2544,2.8672,1.3888,0.5824,0.0,-3,0,-4,0,0
4000,4001,1.8816,1.7472,1.3216,1.7472,-0.7392,1.5456,4.4352,-2.8224,3.8304,6.6528,-3.3152,0.3808,1.3216,1.456,2.352,0.0672,-1,-1,5,0,0
4000,3999,-1.6576,-0.896,-1.9712,-0.3808,-1.12,0.0448,-1.1872,-0.6272,-1.344,-1.0752,2.8,2.2624,-1.9712,-1.1648,-0.7616,-0.1344,2,-2,-2,0,0
4000,4007,-2.1952,-1.5232,-1.5904,-2.688,0.9632,-1.1872,-3.9872,1.68,-3.6736,-3.8976,6.1824,1.12,-1.5904,-1.2992,-1.7248,0.3584,2,-1,-2,0,0
4000,4004,-0.2912,-0.6496,0.2016,-0.0672,1.0976,-0.1792,-1.68,3.2032,-1.6576,-1.9264,1.1872,-2.7104,0.2016,-0.8288,-1.1424,-0.1792,-3,1,3,0,0
4000,4005,1.9712,0.8288,1.6128,2.5088,-0.6496,0.0896,2.352,0.1568,1.9488,1.8368,-1.5008,-0.3808,1.6128,0.112,0.1792,0.1792,3,0,2,0,0
4000,4002,-0.1792,-0.0672,-0.7392,0.0,-2.2176,-0.9184,1.6128,-1.7696,1.68,2.5312,-2.0608,-0.1344,-0.7392,-0.1568,-0.0448,-0.1568,1,2,2,0,0
4000,4004,-1.5008,-0.5824,-1.5456,-0.448,-0.336,0.4704,-1.344,0.5376,-0.9632,-1.3888,-1.1424,-0.3136,-1.5456,-0.8288,-0.672,-0.1344,-4,-3,-3,0,0
4000,4001,-0.4256,0.224,0.1568,0.448,2.3072,0.8064,-1.1872,3.0464,-0.896,-1.8592,3.1808,0.0896,0.1568,0.4256,0.0896,0.0448,3,0,1,0,0
5000,4004,-0.784,-1.2096,-0.3808,2.24,0.2688,-2.1728,-1.5232,0.6272,-2.016,-2.8448,2.6432,1.7696,-0.3808,-1.008,-1.008,0.0672,-1,1,-4,0,0
3000,4005,1.6576,0.2688,1.5008,1.6576,-1.1424,0.5376,1.8816,-2.5984,1.4784,1.6128,1.6352,0.448,1.5008,0.0,-0.448,-0.0672,1,2,-3,0,0
4000,4002,1.4784,1.3888,0.9408,1.4784,-0.9632,1.568,3.3152,-1.4112,3.136,3.4944,-3.4048,-1.68,0.9408,1.4112,1.232,-0.2016,1,-1,5,0,0
4000,4003,-1.12,-0.1344,-1.2096,-1.3216,0.112,-0.9408,-1.4112,0.2688,-1.0752,-1.2768,-1.2992,0.784,-1.2096,-0.6272,-0.2464,0.1344,0,-2,-4,0,0
4000,4000,-1.0528,-0.3136,-0.8288,-7.0112,1.8592,-0.0672,-2.2848,0.7392,-1.568,-2.1728,1.232,0.9856,-0.8288,-0.3584,0.0672,0.0672,-3,3,2,0,0
4000,4006,-0.336,-0.6496,-0.112,-3.8976,0.4928,-0.0672,-0.56,-0.4032,-0.784,-0.5824,1.1424,1.2992,-0.112,-0.0896,-0.2016,-0.0896,0,2,1,0,0
4000,4005,1.0976,0.0,0.8736,-0.7616,-1.68,-0.0448,1.904,-3.9872,1.3664,2.4416,-0.6944,1.2992,0.8736,0.4256,-0.3136,-0.0672,3,0,2,0,0
4000,4002,0.5152,0.3584,0.112,-1.4112,-1.5008,0.112,1.9936,-1.9488,1.9488,2.1728,-3.136,-1.568,0.112,0.56,0.4704,0.1792,-3,1,-1,0,0
4000,4004,0.0224,0.7392,-0.0896,1.7248,1.0304,1.1648,-0.1568,1.9264,0.1568,-0.1344,-3.9648,-1.5232,-0.0896,-0.2688,0.7616,0.1344,2,-7,-5,0,0
4000,4001,-0.9632,-0.4256,-0.3584,-1.5456,2.0608,1.1424,-2.3072,3.6288,-2.016,-2.6656,2.2848,0.56,-0.3584,-0.4704,-0.336,0.0672,3,2,2,0,0
4000,4004,-0.1792,-0.56,0.2912,1.9712,0.9408,-0.8512,-1.3216,1.3664,-1.6128,-1.7024,0.672,-1.0528,0.2912,-0.8512,-1.12,0.0,-5,-1,5,0,0
6000,4005,2.1952,1.232,1.68,0.1568,-0.8288,-0.1792,2.7776,-3.136,2.576,2.5312,-3.5168,-0.8064,1.68,0.2464,0.2912,-0.0448,1,-2,-4,0,0
2000,4002,0.896,1.0304,0.2912,-2.9568,-1.2544,0.5152,3.0464,-2.7328,3.024,3.2032,-3.4496,1.0304,0.2912,1.0304,1.3216,-0.0672,-4,3,1,0,0
4000,4004,-1.2096,-0.3808,-1.0304,-0.8736,0.0896,0.7616,-0.672,1.7024,-0.448,-0.9632,-0.2688,0.5376,-1.0304,0.0672,-0.0448,-0.0448,2,3,1,0,0
4000,4000,-2.1504,-1.68,-1.6576,-2.128,0.9184,-1.5904,-3.808,1.344,-3.4272,-3.3824,4.48,-0.1792,-1.6576,-0.896,-1.5904,0.1568,-4,3,1,0,0
4000,4006,-0.3136,-0.56,0.2688,-3.136,1.0528,-1.232,-1.9264,-0.336,-0.8288,-1.0976,0.56,-0.4704,0.2688,-0.448,-0.0224,-0.2016,3,-8,-3,0,0
4000,4001,1.6576,0.8288,1.1872,-2.9568,-1.8816,0.1568,3.696,-3.8528,3.0912,2.688,-1.0528,-0.4256,1.1872,0.6048,0.784,-0.0896,3,1,2,0,0
4000,4004,1.008,1.4112,0.4256,3.5168,-1.008,1.7248,2.9792,-0.5376,1.68,2.4864,1.232,-0.1344,0.4256,0.7616,-0.112,0.0896,0,4,-3,0,0
4000,4003,0.896,2.5536,0.896,-0.9408,2.3968,2.576,0.4704,0.7168,0.784,0.896,0.0896,-0.8512,0.896,1.6352,1.456,-0.224,0,0,3,0,0
5000,4003,-1.7248,-0.0448,-1.2992,-0.8736,1.1872,-0.672,-3.4272,1.9488,-3.0464,-3.36,0.0224,-0.7168,-1.2992,-1.3888,-1.4112,0.0896,-5,2,3,0,0
4000,4005,-1.1872,-1.3888,-0.784,-1.6576,-0.6272,-2.3296,-1.9264,-0.9632,-2.1952,-2.688,4.928,2.9792,-0.784,-1.1872,-1.4784,0.0,4,-4,0,0,0
3000,4004,0.6496,-0.3136,0.2016,1.5904,-2.352,-1.8816,1.5904,-2.2176,1.2992,1.5008,-0.4704,1.8816,0.2016,-0.6048,-0.1344,0.0224,0,-2,-1,0,0
4000,4002,0.8512,0.9856,0.6272,3.2032,-0.56,2.1952,2.0608,0.2688,2.0832,2.4416,-1.2096,-2.8224,0.6272,0.6944,0.224,-0.2016,1,1,2,0,0
4000,4004,-2.1728,-1.3216,-1.9936,0.1568,-0.56,-0.448,-2.2176,0.784,-1.8816,-2.5312,-1.792,-0.2912,-1.9936,-0.6048,-1.232,0.4032,2,1,-3,0,0
4000,4001,0.0224,0.5824,0.4928,-2.0384,2.9568,0.1792,-1.3664,1.7696,-1.0304,-2.0832,-3.136,1.8816,0.4928,0.2912,1.1424,0.1792,2,0,-2,0,0
4000,4005,-0.6496,-1.1872,-0.3808,-2.8672,-0.1344,-2.0832,-1.232,-1.4336,-1.1424,-0.4928,4.8608,1.904,-0.3808,-0.448,-0.8736,-0.336,-5,-1,2,0,0
4000,4001,1.0752,0.2464,0.672,1.232,-2.016,0.3136,2.464,-1.3664,1.9712,2.5088,1.3664,-0.3584,0.672,0.3808,-0.2912,-0.0896,0,5,-2,0,0
4000,4004,1.5232,1.8144,1.0304,5.1296,0.1568,1.344,2.7328,2.5312,2.688,3.6064,-7.728,-2.5984,1.0304,0.0,1.3888,0.1568,2,-5,3,0,0
4000,4005,-0.3136,0.3808,-0.3584,-0.2464,1.0528,0.1568,-0.4704,2.1504,0.1344,-1.5456,-0.8736,-1.2992,-0.3584,0.0672,0.56,0.1568,-2,-6,0,0,0
4000,4000,0.0,0.448,0.4032,0.56,3.0688,1.6128,-1.568,1.9488,-1.232,-1.68,0.5824,-0.4032,0.4032,0.2688,0.0672,-0.0448,0,6,0,0,0
4000,4005,-0.3808,-1.2768,0.0,0.2464,-0.1568,-1.7024,-1.5456,-0.5376,-1.6576,-1.7024,-0.8512,-1.2096,0.0,-1.7696,-1.7024,-0.1344,0,-4,-3,0,0
4000,4002,0.448,-0.3808,0.1792,-4.0992,-2.8896,-0.336,1.904,-4.032,1.3664,2.3744,0.4928,1.8144,0.1792,-0.1344,-0.5152,0.0672,-2,3,3,0,0
4000,4005,-0.896,-0.4704,-1.3664,-6.6528,-2.5536,0.0448,1.68,-3.3824,1.0752,2.1056,3.3824,2.128,-1.3664,0.896,0.336,-0.336,0,0,-5,0,0
4000,4002,-0.0672,0.6944,-0.0448,-0.7616,1.5904,1.2768,-0.0672,1.5456,0.1344,-0.2688,1.12,0.4256,-0.0448,0.9184,0.8736,0.0,3,0,-1,0,0
4000,4002,1.1648,1.5456,1.68,6.6304,4.4128,0.7168,-1.2768,4.6816,-1.008,-1.8592,-3.6288,-2.1952,1.68,-0.1344,0.8512,0.3136,-2,2,0,0,0
4000,4006,0.3584,-0.1792,0.5376,3.8752,0.4704,-0.1792,-0.6496,1.9264,-0.7616,-1.6576,2.6208,1.3216,0.5376,-0.7168,-0.56,-0.112,-1,-1,3,0,0
4000,4003,0.336,-0.7168,-0.0896,5.152,-3.136,-0.6944,1.344,-1.2544,0.8512,1.8368,3.0464,0.5152,-0.0896,-0.448,-1.4112,-0.0224,2,7,5,0,0
4000,4003,-0.2688,-0.0896,-0.448,-0.0672,-1.7472,-0.1568,2.016,-0.5152,1.68,1.7248,-1.0976,-0.6496,-0.448,1.0752,0.5376,-0.0224,2,-8,-6,0,0
4000,4004,0.112,0.7616,0.224,0.0,2.0608,1.0304,-0.0896,1.4112,-0.0448,-0.6944,-1.3216,-2.1728,0.224,0.9408,0.8736,0.1792,-4,3,1,0,0
6000,3998,-0.8288,-0.4032,-0.224,-0.8512,2.2848,0.4032,-2.8224,2.0608,-2.3296,-3.2032,2.5536,-0.6944,-0.224,-0.9632,-0.896,-0.1792,0,-1,2,0,0
3000,4006,-0.5376,-1.344,-0.2016,0.1568,-0.7168,-1.3664,-1.5904,-0.336,-1.5008,-1.1424,-1.7472,0.5152,-0.2016,-2.3296,-1.5456,0.0448,1,0,-2,0,0
3000,4004,-1.008,-1.9488,-1.3888,-1.5232,-4.368,-2.5088,0.4256,-3.2928,1.0528,1.2544,-2.0608,0.7392,-1.3888,-1.12,-0.8736,-0.0672,-1,3,1,0,0
4000,4003,1.68,2.1952,1.3664,1.4784,0.9856,2.0608,3.0016,0.3584,2.3296,1.904,-6.3168,-3.024,1.3664,0.8064,0.9632,-0.0896,2,1,2,0,0
5000,4005,-0.896,-0.1792,-0.5376,-3.9872,0.7392,0.0896,-0.4032,1.7472,-0.3136,0.1344,-1.5008,-0.5824,-0.5376,0.4928,0.448,0.3136,2,-1,-4,0,0
3000,4001,-1.1648,-0.6048,-0.6944,-0.8064,1.792,-0.672,-2.5536,2.3968,-2.3968,-2.912,-1.2544,-0.6048,-0.6944,-0.2912,-1.008,0.224,-8,0,0,0,0
4000,4007,0.4256,-0.448,0.448,1.2096,0.2464,-0.9632,-0.896,-1.3888,-1.0752,-1.456,3.2256,0.4928,0.448,-1.008,-1.4336,-0.2912,4,-2,2,0,0
4000,4003,0.3136,-0.672,-0.1344,-0.784,-3.4272,-0.8736,2.1504,-3.1136,1.5904,3.0464,5.0176,2.8224,-0.1344,-0.336,-0.0672,0.1568,0,-2,-3,0,0
4000,4000,-0.6272,0.0,-1.0752,-0.8736,-2.016,0.7616,2.1728,-2.3744,1.8816,1.6352,3.4944,2.1504,-1.0752,1.8368,1.4112,-0.224,2,0,1,0,0
4000,4006,0.56,1.2768,0.5824,5.3536,3.024,1.8368,-0.8512,1.8592,-0.5152,-0.896,-3.7632,-0.3808,0.5824,0.5824,1.0528,0.1568,-1,2,-3,0,0
4000,4003,-0.5152,-0.4256,0.112,3.7184,2.464,0.448,-3.1136,4.0992,-2.5536,-3.3824,-1.1872,-1.6128,0.112,-1.568,-1.2992,-0.0672,5,1,7,0,0
4000,4024,1.0528,0.2912,1.6352,-2.016,0.6944,-0.8288,0.6944,-0.8288,0.448,1.12,2.5984,0.7616,1.6352,0.3136,-0.2016,-0.1792,-3,-3,-2,0,0
4000,4005,1.6576,0.784,1.2992,-0.6048,-1.7472,0.4256,3.5616,-2.8672,2.9792,3.4496,-3.9872,-2.016,1.2992,0.7168,0.784,-0.0224,1,-4,2,0,0
4000,4004,0.112,0.5376,-0.1344,-1.0752,-0.8512,1.3664,1.7472,0.3584,1.68,0.8512,-2.5088,-1.7696,-0.1344,0.2464,0.8064,0.336,-4,1,0,0,0
4000,4000,-0.4704,0.3808,-0.2016,-0.672,1.68,1.0976,-0.8736,1.568,-0.56,-1.1872,1.9488,-0.8512,-0.2016,0.3808,0.4032,0.0672,0,3,0,0,0
4000,4006,-1.2544,-1.1872,-0.8064,-2.8224,1.2992,-0.8512,-2.7104,0.9184,-2.4864,-2.5312,3.92,1.7472,-0.8064,-0.6272,-1.0976,-0.0448,-2,0,1,0,0
4000,4003,0.112,-0.784,-0.0672,-0.8288,-0.896,-2.2624,-0.4032,-2.7776,-0.9632,-0.672,3.472,1.1872,-0.0672,-0.6048,-1.2544,-0.2016,5,0,-3,0,0
5000,4004,1.5456,0.9184,0.9184,-1.792,-1.5232,-0.112,2.9792,-4.3456,2.6208,2.6208,-3.7408,0.3136,0.9184,0.6048,0.4928,0.0448,-2,-1,0,0,0
3000,4002,-0.9856,-0.3584,-1.2992,-3.0464,-1.6352,0.784,0.9408,-1.344,0.9408,1.8368,-2.3744,-0.0448,-1.2992,0.3808,0.56,-0.1344,-2,2,0,0,0
4000,4003,-0.4256,0.3808,0.1792,-1.0528,2.3296,1.5008,-1.1872,3.0912,-0.7392,-1.6128,-5.712,-2.7776,0.1792,-0.4032,0.56,0.0,4,3,2,0,0
4000,4004,-0.5152,-0.0224,0.224,-0.1568,2.464,-0.2688,-2.2624,4.1216,-1.6128,-2.5536,-1.4784,-1.8368,0.224,-0.8512,-0.5376,0.0,2,-6,-3,0,0
4000,4001,1.2096,0.224,1.008,1.456,-0.1792,-0.5152,0.1792,-0.3808,0.224,-0.1344,2.2624,0.224,1.008,-0.2912,-0.8064,0.0896,-4,6,-1,0,0
4000,4004,1.0976,0.2016,0.6272,-6.608,-2.6656,-0.7392,3.7856,-6.0256,3.0688,3.6736,2.3072,3.0688,0.6272,1.9264,1.232,0.1792,-1,-6,2,0,0
6000,4001,-1.344,-0.6496,-1.5904,-3.0016,-1.568,0.4704,0.1792,-1.5904,0.1792,0.4032,0.8064,1.5232,-1.5904,0.2464,0.112,0.1792,3,3,-4,0,0
2000,4007,0.0896,0.7392,0.0896,0.8288,2.128,1.8368,-1.0752,1.232,-0.8512,-1.6352,0.5152,0.448,0.0896,0.1568,0.5152,0.0,-1,5,6,0,0
4000,3997,-0.3136,-0.0672,0.2912,2.688,2.6432,0.224,-2.2848,2.8672,-1.8368,-1.7024,0.7392,-0.6048,0.2912,-0.8736,-0.5376,-0.224,3,-6,-3,0,0
4000,4004,0.7392,-0.2912,0.8064,3.1136,-0.3136,-0.896,0.5376,0.6272,0.0672,-0.224,1.6128,-0.7616,0.8064,-0.8512,-0.6048,0.336,-5,4,0,0,0
4000,4007,-0.224,-0.896,-0.6272,-1.6352,-3.6288,-1.7472,1.9264,-2.6432,1.9936,3.5616,-0.784,0.3584,-0.6272,0.2464,0.1568,-0.1792,-1,-2,-1,0,0
4000,4005,-1.5008,-0.8288,-1.6128,-1.9936,-1.792,-1.5456,0.2912,-0.6272,0.4704,0.672,-0.6272,0.6272,-1.6128,0.6496,0.5376,-0.0448,2,-1,2,0,0
4000,4001,0.2912,1.0976,0.56,1.0752,3.0464,2.912,-1.12,2.8672,-1.456,-1.9936,1.008,-0.3808,0.56,0.224,-0.2016,0.0896,1,3,0,0,0
4000,3999,0.7392,0.9632,1.2992,-2.576,3.3376,1.568,-1.0752,2.24,-0.6496,-1.0976,-1.792,-1.0752,1.2992,0.336,0.56,-0.2464,0,-2,2,0,0
5000,4006,0.3808,-0.672,0.4256,-0.2464,-0.9408,-1.344,0.2912,-0.4928,0.1344,0.1568,-1.792,-0.2688,0.4256,-1.2544,-0.7392,0.0224,5,1,-5,0,0
5000,4034,1.6352,1.2096,1.0528,3.808,-1.568,0.4928,3.36,-0.7616,2.8448,3.7184,-1.008,-1.5232,1.0528,0.8288,0.5152,0.224,-1,-4,0,0,0
2000,3984,0.5152,1.0752,0.224,1.568,0.4928,1.2992,1.6128,0.3584,1.7472,1.456,-2.4416,-1.68,0.224,1.456,1.3888,-0.112,0,2,2,0,0
4000,3991,-1.7472,-1.1424,-1.4112,1.1424,0.6048,-0.4032,-2.7776,1.568,-2.3744,-4.0096,-1.0304,0.336,-1.4112,-1.3664,-1.008,-0.1792,-4,-2,-1,0,0
4000,4004,-1.0528,-0.9184,-0.224,0.4928,1.5456,-0.4704,-3.1136,0.3136,-2.8224,-2.9792,6.9888,2.9792,-0.224,-0.784,-1.2544,-0.0224,0,-1,2,0,0
4000,4004,-0.8288,-1.9936,-0.5824,-3.3824,-2.5536,-3.248,-0.4704,-3.4944,-0.7392,0.4928,4.3456,2.912,-0.5824,-0.7168,-1.5232,0.1792,-3,1,-3,0,0
4000,4005,0.3808,-0.0224,-0.2464,0.0672,-2.9568,-1.0304,2.6656,-2.24,2.1952,2.1504,-1.792,-0.2688,-0.2464,0.224,0.3136,0.0448,-1,0,-1,0,0
4000,4000,1.2992,2.0832,0.8288,2.1056,1.5904,3.1808,1.7696,1.12,1.9936,1.6128,-7.2576,-2.3072,0.8288,0.8736,1.8816,0.0448,2,0,5,0,0
4000,4004,-0.3808,0.2464,-0.2688,-2.4416,2.0832,0.6272,-1.8592,2.016,-1.4112,-1.5456,-3.0464,0.3808,-0.2688,-0.8512,-0.112,-0.0224,-1,0,-4,0,0
4000,4004,-0.112,-0.3136,0.224,-1.8592,1.5904,0.112,-1.3216,1.9936,-1.3888,-2.0832,2.7328,1.5904,0.224,0.4928,-0.224,-0.1568,4,3,2,0,0
4000,4003,0.0896,-1.1872,0.0,3.3824,-1.6576,-1.2768,-0.1568,-0.896,-0.4928,-0.448,2.8,0.0224,0.0,-1.1872,-1.7024,-0.2016,-2,-3,0,0,0
4000,3997,1.344,1.0752,0.9632,3.2928,-1.6576,0.6496,3.4944,-1.232,3.024,4.2112,1.0304,-0.7168,0.9632,1.1872,1.232,0.0672,4,0,2,0,0
4000,4008,-0.224,0.5376,-0.2464,-0.5376,-0.2016,0.7616,0.8064,-0.8288,0.8064,0.4256,1.7472,-0.6048,-0.2464,1.2768,0.7616,0.0896,-9,1,1,0,0
4000,4004,-2.3744,-1.5456,-1.9712,0.56,0.2912,-1.0528,-3.7856,1.3888,-3.584,-3.9648,4.3904,2.3744,-1.9712,-0.8736,-1.792,-0.112,8,-1,-5,0,0
4000,4004,0.2464,0.2912,0.7168,-0.9856,2.688,0.1792,-1.8144,1.9488,-1.4784,-1.9488,-2.5312,-0.5376,0.7168,-1.0304,-0.2016,0.112,-4,-7,2,0,0
4000,4000,1.0752,0.0224,1.1648,-2.464,-0.9408,-0.5824,1.792,-2.464,1.2992,1.3664,-3.36,-0.6944,1.1648,-0.7168,0.1792,0.2688,3,10,-2,0,0
4000,4002,0.4928,0.1344,-0.112,-4.2784,-2.5312,-0.6944,2.8672,-4.4128,2.3744,3.36,-0.7616,-0.1792,-0.112,0.3808,0.3808,-0.1792,-2,2,4,0,0
4000,4004,0.3136,0.9408,-0.112,-3.4944,0.6272,0.8288,0.7392,-1.0752,1.1648,1.232,-1.12,-0.224,-0.112,1.008,1.4336,0.0896,2,-5,-6,0,0
5000,4005,-0.3584,0.336,0.2016,-3.4944,2.3968,0.9408,-1.0752,1.8368,-0.6048,-1.232,0.2688,-0.784,0.2016,0.6272,0.6048,-0.224,3,3,8,0,0
3000,4002,0.2912,0.4032,0.9184,2.8,2.5984,0.896,-0.9632,3.3376,-1.008,-1.9488,1.232,-0.3584,0.9184,0.3136,0.0224,0.0448,-7,-1,-2,0,0
4000,4007,-0.0672,-1.008,-0.1344,4.0096,-1.9264,-1.12,-0.3136,-0.1568,-0.3808,0.112,3.2032,1.5232,-0.1344,-0.9856,-1.6352,0.0672,4,2,-1,0,0
6000,4012,-0.8064,-1.008,-1.2096,-0.0448,-3.472,-1.008,1.2768,-3.0912,0.9632,2.1504,4.5696,3.1136,-1.2096,0.0672,-0.6272,-0.1792,3,3,-4,0,0
2000,3994,-2.3296,-1.8816,-2.688,1.232,-1.9936,-1.5456,-2.1952,0.2912,-0.8512,-1.4336,-0.7392,0.9632,-2.688,-0.784,-0.3808,0.0448,-3,-10,2,0,0
5000,4001,1.3216,1.9264,1.4784,3.808,3.6512,2.1504,-0.4256,2.1056,-0.6496,-1.9488,-5.376,-2.1952,1.4784,0.0448,1.232,-0.0896,0,3,1,0,0
3000,4005,0.6496,0.4928,1.2096,-1.0528,2.4192,0.3136,-0.5824,1.7472,-1.0976,-1.904,1.8368,-0.4928,1.2096,0.0,-0.336,0.3808,-3,2,-1,0,0
4000,4003,0.2464,-0.784,0.2016,-1.344,-2.0832,-1.6352,1.0304,-2.688,0.4256,1.6128,3.8976,0.4032,0.2016,-0.0672,-1.344,-0.0672,2,0,1,0,0
4000,4003,0.6272,0.3584,0.2464,-1.6352,-2.0832,0.6048,2.7552,-3.6064,2.1728,3.2704,-2.9568,-1.6128,0.2464,0.4032,0.5824,-0.1344,-1,3,2,0,0
4000,4000,0.3136,1.008,0.224,1.0752,0.9408,0.7392,0.672,2.4416,0.8736,0.6944,-4.3232,-2.24,0.224,-0.1344,1.12,-0.2016,3,-3,1,0,0
4000,4000,-0.56,0.0672,-0.336,-0.1792,1.68,0.5152,-1.232,4.0544,-1.12,-2.0384,0.7392,-0.1792,-0.336,0.1792,0.336,0.0224,-2,0,-5,0,0
5000,4004,-0.1344,-0.3136,0.1568,2.0608,1.9712,0.4032,-2.1728,1.344,-1.7696,-2.3072,1.9488,1.008,0.1568,-0.224,-0.6496,0.224,-4,0,2,0,0
3000,4008,0.2016,-0.8288,-0.0448,2.8448,-2.128,-2.7104,0.4256,-2.5984,0.4032,0.3808,-2.2176,1.904,-0.0448,-0.56,-1.1424,0.112,10,2,-4,0,0
4000,4001,2.016,1.9488,1.5008,4.1216,-0.1792,1.9712,2.9792,-0.1568,3.1584,3.9424,-7.4144,-1.8144,1.5008,0.4032,1.0304,-0.0672,-4,0,2,0,0
4000,4004,-1.0528,-0.2912,-1.1648,-2.9344,-0.4032,0.3136,-0.2912,0.3584,-0.0224,-0.3136,1.0976,0.6944,-1.1648,-0.1344,0.112,0.0,-3,-3,1,0,0
4000,4000,-1.8144,-1.0976,-1.456,-4.5472,0.56,-0.8288,-2.1728,0.6944,-2.0384,-2.4416,3.248,1.568,-1.456,0.1568,-0.0448,0.0672,-1,3,-2,0,0
4000,4005,0.1344,0.0672,0.7616,0.8512,2.352,0.2912,-1.6352,1.008,-1.5232,-1.1872,-0.336,-0.0672,0.7616,-0.336,-0.2912,-0.0224,-1,-4,4,0,0
5000,4000,1.12,-0.1792,1.1424,0.4928,-1.6128,-0.0672,1.4112,-1.1424,1.12,1.5456,-0.8064,-0.2016,1.1424,-0.0896,-0.3808,0.1344,2,2,3,0,0
3000,4004,0.5152,0.4032,0.112,-1.8368,-2.4864,-0.3584,3.024,-3.0912,2.4864,3.0464,0.7392,-0.0672,0.112,1.0752,0.7392,-0.1344,-2,1,-4,0,0
4000,4008,-0.9632,-0.0224,-1.0304,1.0752,0.2464,-0.1344,-1.2992,0.112,-1.008,-0.4928,-2.8,-0.6944,-1.0304,-0.9632,-0.4032,-0.0224,2,-2,0,0,0
4000,4001,0.0,0.4256,0.2912,-2.1952,2.2624,1.7696,-1.008,2.0608,-0.8512,-1.7248,2.2176,-0.2688,0.2912,0.6272,0.7616,0.0224,2,0,2,0,0
5000,4017,-0.4928,-0.7392,-0.0224,-1.1872,1.0304,-1.1648,-1.3664,-0.112,-1.792,-2.688,10.1472,2.1952,-0.0224,0.896,-0.6048,-0.0896,-1,3,0,0,0
4000,3991,0.7616,-0.336,0.672,1.7472,-1.6576,-1.7248,1.3888,-1.2992,1.0528,0.56,-0.7392,-0.9184,0.672,-0.2688,-0.5824,0.0672,-2,-2,1,0,0
3000,4000,1.0752,1.008,0.6272,1.68,-0.896,1.5904,2.6208,-0.5824,2.7328,4.3008,-6.8096,-2.128,0.6272,0.56,1.12,0.0896,7,-3,-2,0,0
4000,4005,0.4928,1.2544,0.0896,1.8368,1.3664,2.2848,0.4256,2.1728,0.6944,0.1568,-4.7264,-0.1568,0.0896,0.3136,1.0976,0.0224,-2,1,0,0,0
7000,4004,-0.6944,-0.0672,-0.7616,2.128,1.9936,0.1792,-2.5984,3.8304,-2.016,-2.5312,-4.3456,-0.9408,-0.7616,-1.904,-0.4032,0.2016,-4,1,3,0,0
1000,4008,0.1568,-0.112,0.8064,-4.2336,1.568,-0.1344,-1.4784,-0.336,-1.3888,-1.1872,3.1808,0.8512,0.8064,-0.336,-0.4032,-0.2912,0,3,-4,0,0
4000,4007,-0.4704,-1.456,-0.5152,-2.128,-3.808,-2.4192,1.68,-3.7408,0.6496,1.3216,3.5392,1.3888,-0.5152,0.336,-0.6272,-0.3808,4,-4,-1,0,0
8000,3992,1.1648,1.0752,0.6272,6.048,-0.8288,1.008,2.5088,-0.8512,2.3072,2.9792,-2.016,-0.9856,0.6272,0.9632,0.672,0.1792,-2,2,2,0,0
0,4002,-1.6576,-0.9632,-1.6128,1.7696,-0.7392,-1.0752,-2.0608,0.8064,-1.232,-0.672,0.1344,0.672,-1.6128,-0.9184,-0.896,-0.0672,-3,-1,0,0,0
4000,4009,-1.0976,-0.6944,-0.6944,-3.4944,1.68,-0.3136,-2.7104,1.1424,-2.24,-3.8976,3.2704,1.3216,-0.6944,-0.1344,-0.448,-0.336,2,1,-2,0,0
4000,4000,0.7616,0.4032,1.1648,-3.1808,1.8368,0.8736,0.0672,-0.4256,-0.896,-1.3216,1.7248,-0.5152,1.1648,0.3136,-0.0896,0.2016,2,6,1,0,0
4000,4003,0.56,-0.4032,0.1344,4.3456,-2.0832,-0.7616,1.1648,-1.3664,0.9184,2.352,-1.568,-1.68,0.1344,-0.9632,-0.9408,0.2016,-3,-13,-2,0,0
4000,4001,0.4032,0.4256,-0.112,-0.5824,-1.568,0.4256,1.8368,-1.792,1.8144,2.0608,0.8064,0.672,-0.112,0.4032,0.5376,0.0672,0,11,3,0,0
5000,4004,-2.0608,-1.3216,-1.9936,-2.688,-1.0304,-0.9184,-1.232,0.0224,-1.2096,-1.7248,1.8592,2.352,-1.9936,-0.112,-0.3136,0.1344,-1,-6,-2,0,0
3000,4005,0.3584,0.8736,0.7168,0.4704,3.1808,1.1648,-1.1424,2.6208,-0.9632,-1.6352,0.2016,-0.2464,0.7168,0.4928,1.12,-0.2016,3,2,0,0,0
5000,4002,0.56,0.1568,1.0528,4.032,1.6128,-0.8512,-0.7616,2.688,-0.784,-1.12,-0.448,-1.568,1.0528,-0.6272,-0.4256,0.0448,-4,0,0,0,0
3000,4005,1.3216,0.2016,1.0752,1.8816,-1.8592,-0.2912,2.6432,-2.0384,2.0384,2.4864,0.4256,-0.0672,1.0752,0.56,-0.0224,-0.0896,5,2,3,0,0
4000,4001,0.56,0.7168,0.0,1.6352,-0.8512,0.7168,1.68,-1.344,1.9936,1.68,-3.4944,-1.0976,0.0,0.8736,0.8288,-0.0224,-4,-1,-1,0,0
5000,4005,-0.672,0.2912,-0.6496,-1.0752,0.5152,1.5232,-0.7168,1.0304,-0.336,-1.6352,0.8288,-1.1424,-0.6496,-0.1344,0.0896,-0.1344,1,1,-3,0,0
4000,4003,-1.232,-0.672,-1.12,-1.3216,1.0304,-0.2464,-2.688,1.5456,-2.576,-2.576,3.696,1.7472,-1.12,-0.56,-0.7168,0.1344,2,-1,5,0,0
4000,4001,-0.112,-0.7392,0.3136,0.224,0.7168,-1.2096,-1.0976,1.5904,-1.1648,-0.1792,1.2992,-0.5376,0.3136,0.0,-0.8288,0.0448,3,-2,-4,0,0
3000,4008,1.3888,0.2016,1.3216,3.2256,-1.232,-1.1648,2.0832,-0.0672,1.9936,2.9792,-4.5024,-1.8368,1.3216,-0.3136,-0.2016,-0.2688,-2,0,0,0,0
5000,4001,0.2912,0.3808,-0.336,-1.4336,-1.8368,0.896,2.128,-1.12,2.0384,2.2624,-0.9408,-0.6048,-0.336,0.7392,0.6272,0.0448,-2,0,4,0,0
4000,4004,-0.6048,0.0224,-0.8288,0.0,0.4032,1.2096,-0.8512,0.4032,-0.6944,-1.4784,-1.4112,-0.1344,-0.8288,0.0896,0.448,0.4032,3,5,-6,0,0
6000,4004,-0.9856,-0.448,-0.224,0.6944,2.1504,-0.1344,-2.7104,2.7552,-2.3968,-3.8528,2.9344,0.2016,-0.224,-1.0976,-0.784,-0.1792,-3,-5,5,0,0
1000,3996,0.2688,-0.1792,0.896,-0.4256,0.8512,-0.7392,0.1344,-0.2688,-0.56,-0.5152,3.3824,0.4928,0.896,0.3136,-0.224,0.0,1,0,-1,0,0
4000,4010,1.9936,1.008,1.5232,3.696,-0.9632,-0.0672,2.8224,-2.4416,2.3744,3.7632,-2.352,-0.4032,1.5232,0.8512,0.4928,0.3136,-3,-2,0,0,0
4000,4003,0.4704,0.6272,-0.224,1.6128,-1.2768,0.6272,1.5232,-0.9632,1.904,2.2176,-7.9744,-1.3216,-0.224,-0.4704,0.7392,-0.1568,2,1,3,0,0
4000,4003,-1.2768,-0.4256,-1.2096,0.8736,-0.112,0.9408,-0.896,1.8816,-0.8288,-0.784,0.0896,-0.7168,-1.2096,-0.336,0.224,-0.0896,1,3,-2,0,0
4000,4005,-0.4704,0.112,0.0,3.4496,2.6208,0.4928,-2.5312,4.6592,-2.128,-2.8224,3.1584,0.0,0.0,-0.5824,-0.6944,-0.0448,-7,-3,0,0,0
6000,3996,0.2016,-0.3136,0.6496,-1.2992,0.9184,-0.784,-0.6048,0.56,-0.7168,-1.4784,4.2112,2.1056,0.6496,0.0448,-0.4704,0.0896,9,0,-2,0,0
2000,4002,0.8736,-0.112,0.5376,-1.68,-2.4864,-1.008,2.6208,-3.5168,2.0384,2.0608,1.9936,0.224,0.5376,1.2096,0.336,0.0672,-2,0,1,0,0
4000,4004,-0.0224,0.224,-0.4928,-2.6656,-1.5456,0.4032,1.5904,-3.2928,1.344,1.9264,-1.68,-1.0304,-0.4928,0.2464,0.3808,-0.0896,-1,-3,3,0,0
5000,4024,-0.8064,-0.0224,-1.008,-2.6656,0.4256,-0.2688,-0.6048,-0.784,-0.4256,0.1792,-2.128,-0.336,-1.008,-0.0224,0.6272,-0.0896,0,-1,-4,0,0
4000,3980,-2.0608,-1.5456,-1.7024,-1.2096,0.8512,-0.6272,-4.0992,0.5824,-2.5984,-3.2032,4.0768,2.1952,-1.7024,-0.3136,-0.3136,-0.0896,-2,7,0,0,0
4000,4003,1.0528,0.2464,1.5008,0.9632,1.1648,0.672,-0.1344,-0.112,-1.0304,-1.4336,5.4208,2.7328,1.5008,0.6048,-0.448,0.112,3,-2,2,0,0
4000,3997,3.024,1.9936,2.7776,5.0848,-0.0448,0.6496,3.6512,0.4928,2.8224,3.9648,-4.8384,-1.1872,2.7776,0.8512,0.7392,-0.1344,-4,1,-3,0,0
5000,4002,-0.0896,0.2464,-0.4032,0.6272,-1.3664,-0.8064,1.4784,0.336,1.6576,1.7696,-5.5552,-1.2768,-0.4032,-0.5824,0.4032,0.2688,4,-2,-2,0,0
4000,4006,-1.4336,-0.6496,-1.3664,-1.344,0.1344,1.0304,-1.4112,0.4704,-1.12,-1.2992,2.5088,0.336,-1.3664,-0.2464,-0.2912,0.0448,0,4,-1,0,0
2000,3998,0.0672,0.6048,0.3584,1.12,3.0912,1.9264,-2.0608,2.8448,-1.568,-1.8144,1.008,-1.904,0.3584,0.6048,-2.7552,-0.2016,1,2,4,0,0
4000,4001,1.2992,0.448,1.6352,0.8736,1.7248,-0.2016,-0.2464,1.4784,0.2464,-0.7392,-5.3088,-1.9712,1.6352,-0.336,-5.7568,-0.2016,-1,-1,2,0,0
4000,3998,1.8368,0.9408,1.568,-0.8512,-1.8144,-0.672,3.8528,-2.5536,3.1808,4.032,0.0,-0.6272,1.568,1.1648,-1.4784,0.0896,-1,-2,-3,0,0
4000,4006,-0.9856,-0.6944,-1.5008,-1.9712,-2.576,-0.448,1.4112,-3.7408,0.6944,1.456,3.9872,1.8816,-1.5008,0.8288,-0.6944,0.1344,4,2,3,0,0
4000,4004,-1.12,-0.1792,-1.0304,-2.4416,0.6496,0.784,-1.5232,-1.1648,-1.4112,-1.9936,4.5248,2.352,-1.0304,0.0672,-0.2688,-0.0672,-6,-3,-1,0,0
4000,4001,-0.4704,0.112,0.1568,0.6272,2.5088,0.5824,-2.2176,2.6432,-1.9264,-3.1584,-0.1344,0.896,0.1568,-0.0224,-0.0672,0.112,-3,-3,-2,0,0
4000,4004,0.6272,-0.1568,1.0976,2.688,0.5152,-0.4704,-0.336,1.5232,-0.5824,-1.456,0.9184,-0.9856,1.0976,-0.3136,-1.2544,-0.0896,7,9,0,0,0
4000,4003,2.2848,1.4336,1.9264,2.4416,-0.8736,0.0672,3.696,-0.1568,3.3376,3.696,-4.0992,-1.2768,1.9264,0.6944,0.9632,-0.0448,-2,-4,3,0,0
4000,4003,-0.8736,-0.4256,-1.2768,-0.0448,-1.7024,-0.6272,0.2688,-0.7616,0.4032,1.8368,-5.6,-1.2768,-1.2768,-1.2992,-0.4032,0.1792,-1,2,2,0,0
4000,4004,-1.12,-0.224,-0.6944,-2.8,0.56,1.4336,-1.3888,-0.1792,-1.1424,-0.896,0.6048,-1.12,-0.6944,-0.3808,-0.1568,-0.0672,4,-6,-6,0,0
4000,4002,-0.672,-0.4032,-0.2912,-1.3888,1.68,-0.6048,-1.792,1.3664,-1.7696,-1.8144,2.5312,0.3584,-0.2912,-0.2016,-0.1568,0.1344,-5,5,1,0,0
4000,4003,0.7616,-0.1344,0.6272,1.008,-0.0224,-0.2688,0.336,-1.2768,-0.112,-0.448,4.704,2.3968,0.6272,0.5376,0.0448,-0.0672,8,-2,-2,0,0
4000,4003,0.8512,0.0896,0.3136,0.9632,-2.128,0.0896,1.9712,-3.2928,1.6128,2.0832,-1.12,1.8368,0.3136,0.4704,0.3808,0.0224,-1,1,4,0,0
4000,4006,-0.448,0.0896,-0.4032,0.0448,-0.9408,-0.224,1.0304,0.0448,0.7616,1.3664,-0.784,-1.232,-0.4032,0.56,0.4704,0.0448,-6,2,-2,0,0
5000,4001,-0.4256,0.2912,-0.2464,0.6048,1.6352,0.0,-1.008,3.8752,-0.5152,-1.0752,-5.7568,-3.024,-0.2464,-0.3808,0.2016,-0.1344,0,-3,2,0,0
3000,4005,-1.1872,-0.9632,-1.1424,-0.9408,1.3216,-0.0224,-3.136,2.3296,-2.5312,-2.912,2.3968,0.0448,-1.1424,-0.9856,-1.008,-0.0224,2,4,0,0,0
5000,4000,0.672,-0.3136,0.672,-0.9632,0.0,-0.6496,-0.2464,-1.3216,-0.2464,-0.7168,1.9264,1.4112,0.672,-0.3136,-0.4928,0.0448,1,-8,-1,0,0
4000,4004,1.12,0.3136,0.784,0.112,-2.24,-0.784,2.6208,-2.7552,2.2176,2.352,1.1872,1.5232,0.784,0.448,0.2688,0.0,1,3,-3,0,0
6000,4018,0.672,1.1648,0.4704,-0.8736,-0.2688,1.7024,2.3072,-1.008,2.1504,1.9264,-2.1952,0.7616,0.4704,1.5456,1.5232,0.0,-2,-3,5,0,0
3000,3995,-1.3664,-0.6944,-1.2992,-2.3072,0.3808,0.56,-1.6576,0.56,-1.4336,-1.7024,1.8144,2.5088,-1.2992,-0.0672,0.0896,-0.0672,-1,0,-3,0,0
6000,4004,-1.008,-0.6048,-0.6272,1.1648,1.8368,-0.8512,-3.2256,2.4192,-2.464,-3.2032,-0.2688,-1.12,-0.6272,-1.0528,-0.8288,0.224,1,0,-1,0,0
2000,4004,-0.6048,-1.5456,-0.6496,-3.7856,-1.3888,-2.6432,-1.68,-2.128,-0.672,-0.112,0.672,0.7616,-0.6496,-0.8736,-1.0528,0.0,2,1,4,0,0
3000,3992,1.0752,0.4032,0.6496,-0.9632,-2.0832,0.448,2.9568,-3.5392,1.7696,3.2928,-0.8064,1.008,0.6496,0.0896,-0.0672,0.0896,-1,4,0,0,0
4000,4008,0.5376,1.1648,0.2912,-1.2992,-0.3136,1.344,2.688,-0.448,2.464,2.128,-0.8736,0.0672,0.2912,1.7248,1.9712,-0.336,-2,1,-2,0,0
4000,4004,-0.7616,0.0224,-0.672,1.6352,1.9712,0.112,-1.7248,1.8816,-1.2992,-2.7104,0.9632,-2.1952,-0.672,0.0224,-0.0672,0.0448,0,-8,-1,0,0
4000,4005,-1.4336,-1.232,-0.8064,-3.1136,1.5904,-1.008,-3.5392,1.2096,-3.0912,-3.1808,4.6368,-0.0224,-0.8064,-0.8064,-1.3888,0.112,2,4,3,0,0
4000,4000,0.4704,-0.4928,0.56,1.0976,-0.6944,-0.6048,0.0672,-0.7392,0.1344,-0.0672,-1.1424,0.2464,0.56,-0.5824,-0.3584,-0.224,-3,-1,-2,0,0
3000,4000,1.2992,0.6496,0.8288,0.8064,-2.1504,-0.224,3.0464,-2.8448,2.6432,3.7856,2.6208,0.9408,0.8288,0.7616,0.6496,0.0448,3,-2,0,0,0
5000,4018,0.5376,1.1872,0.3136,2.464,0.2016,1.2768,1.2992,-0.2016,1.2096,2.016,-1.9712,0.112,0.3136,1.0528,1.4336,-0.0224,-3,5,2,0,0
3000,4000,0.896,1.456,0.9856,5.4656,3.1136,2.9792,-0.4928,4.0544,-0.2464,-0.448,-9.8784,-1.904,0.9856,-0.0672,0.8512,0.0672,3,-6,-4,0,0
4000,3999,0.336,0.56,0.8512,-1.1872,2.4192,0.4256,-1.0752,2.688,-1.1872,-2.3744,-2.2848,-2.5312,0.8512,-0.0672,0.112,-0.0448,0,6,5,0,0
5000,4000,-1.008,-1.9488,-0.672,-0.9856,-1.9712,-3.2256,-1.1648,-0.1792,-1.5904,-1.6128,1.344,-1.2992,-0.672,-1.7024,-2.2848,0.0448,-2,2,-2,0,0
3000,4004,-0.1568,-0.8288,-0.7392,1.568,-3.472,-0.9632,1.4784,-1.5456,1.232,1.5904,0.5824,-0.0448,-0.7392,-0.5824,-0.8512,0.2464,1,-5,0,0,0
4000,3998,-0.5376,-0.0448,-0.784,1.68,-0.9408,0.6496,0.5376,0.672,0.784,0.896,-0.2912,0.6496,-0.784,-0.112,0.56,0.0448,-2,8,-3,0,0
5000,4006,0.5824,1.344,0.9184,1.0976,3.136,1.0976,0.0224,2.016,0.3584,-0.7616,1.232,0.7616,0.9184,1.2768,1.792,-0.1344,5,-5,1,0,0
4000,4003,-0.9408,-0.784,-0.5824,-1.3216,1.7696,-0.5152,-2.6432,-0.2912,-2.5312,-2.8448,3.136,1.008,-0.5824,-0.2016,-0.8288,0.0224,-6,-1,4,0,0
3000,4002,0.112,-0.8288,0.2912,-3.2032,-1.7024,-1.2768,0.2464,-3.0688,-0.2464,0.896,2.7776,0.0448,0.2912,-0.0896,-1.0304,0.0672,6,0,-2,0,0
5000,4006,0.7392,0.0448,0.3136,0.7392,-2.8224,-0.1344,3.0912,-1.792,2.1504,2.0608,-0.2016,-0.3808,0.3136,0.784,0.5824,-0.2464,-4,-1,-1,0,0
4000,4003,0.9856,1.456,0.6496,0.6944,0.7168,2.0832,1.7472,1.5008,1.9264,2.4864,-5.4656,-1.2992,0.6496,1.2096,2.128,0.112,6,2,4,0,0
3000,4002,1.232,2.0384,1.3216,3.4272,3.6736,2.6432,-0.224,3.6512,0.4928,0.0448,-2.3968,-1.12,1.3216,0.9184,1.7248,0.0672,-9,-2,-2,0,0
4000,4002,-1.4336,-1.2544,-0.8736,1.904,1.2096,-1.0304,-3.5616,1.3888,-3.248,-4.0096,4.6144,1.8816,-0.8736,-1.7024,-1.7024,0.112,4,3,0,0,0
5000,4003,-0.672,-1.8592,-0.5376,1.8592,-2.3072,-2.464,-1.1872,-1.8592,-1.456,-0.9408,6.2048,2.352,-0.5376,-1.0976,-2.1728,-0.2688,3,-1,0,0,0
5000,4000,-0.8512,-1.3664,-1.2096,-0.8512,-4.1216,-1.5904,0.9856,-3.9648,0.784,1.5904,3.1584,2.1056,-1.2096,0.2912,-1.1648,-0.0448,-4,0,0,0,0
2000,4003,-0.224,0.3584,-0.4704,-1.7024,0.0448,0.672,0.448,-0.8512,0.448,1.0528,-3.2928,-0.784,-0.4704,-0.3136,0.56,0.0224,0,0,-1,0,0
4000,4008,-0.7168,0.1792,-0.6048,-4.5024,1.1648,0.224,-0.2912,0.6496,-0.224,-1.1424,-3.1584,-1.0528,-0.6048,0.0224,1.1648,0.112,-1,0,1,0,0
5000,4004,0.0448,0.448,0.4704,0.8288,2.8224,0.336,-1.9936,2.0608,-1.5232,-2.6432,0.2912,-0.9184,0.4704,-0.224,-0.2688,-0.1344,5,0,-4,0,0
4000,4001,0.224,-0.9184,0.1568,-0.4256,-1.8592,-1.8144,0.112,-0.7168,0.5824,0.6944,0.784,1.008,0.1568,0.2464,-0.1792,-0.112,-1,-2,5,0,0
4000,4004,1.4784,1.0528,1.0528,-2.1952,-1.5232,1.12,3.36,-2.7552,2.8448,4.1888,-3.248,0.6048,1.0528,1.2096,1.344,0.2464,-2,1,-2,0,0
4000,4002,0.112,0.7616,-0.0448,-2.5984,0.0896,0.9632,1.0528,-1.4112,0.6944,1.1424,0.672,1.0304,-0.0448,0.672,0.6944,0.0224,0,2,2,0,0
3000,4005,-0.9632,-0.224,-0.7616,1.0304,1.8592,0.2016,-2.1728,1.344,-1.6128,-3.2256,1.5232,0.1792,-0.7616,0.0896,0.0448,0.112,-2,0,-1,0,0
5000,4002,0.1344,0.224,0.6496,0.112,2.6432,0.3584,-1.8368,2.4864,-1.8144,-1.1648,-1.4336,-0.7392,0.6496,-0.0448,-0.2912,-0.2464,1,-4,-2,0,0
3000,4007,0.1568,-1.0304,0.0448,-4.5024,-1.9712,-1.3888,0.3808,-2.24,-0.1568,-0.2464,1.1872,0.2688,0.0448,-0.5376,-1.2096,-0.1568,2,1,1,0,0
4000,3999,0.896,0.6272,0.448,-2.3296,-1.792,0.6496,2.9792,-2.6208,2.8224,2.912,-2.0608,0.112,0.448,1.0976,0.8512,0.0672,-2,4,1,0,0
5000,4001,-0.0672,0.6944,-0.2688,2.016,0.2688,0.8512,0.8288,0.448,1.12,1.5904,-2.016,-1.0528,-0.2688,0.1568,1.2768,-0.0896,3,-6,0,0,0
3000,4007,-1.5232,-0.784,-1.2768,3.4048,1.1872,-0.2016,-3.0912,4.2336,-2.4864,-3.2032,1.344,0.448,-1.2768,-1.0976,-0.784,0.112,-2,3,-2,0,0
4000,4002,-0.5376,-0.56,-0.224,4.816,1.3216,-0.8512,-2.6656,3.36,-2.7104,-2.7328,3.0464,-0.336,-0.224,-1.344,-1.2544,0.1344,-1,-1,2,0,0
4000,4002,1.5008,0.336,1.3216,2.0384,-1.1648,-1.344,1.8368,-2.4864,0.9184,1.3888,0.7392,1.1872,1.3216,0.1344,0.4256,0.112,1,-1,-4,0,0
4000,4004,1.2096,0.784,0.6048,-0.5152,-1.7696,0.896,2.9792,-2.9344,2.7104,3.472,-2.3296,-0.6496,0.6048,0.8736,1.0304,-0.0672,0,7,7,0,0
4000,4003,-0.7392,-0.1792,-0.9856,-2.6656,-0.7168,1.3664,-0.0224,0.1792,0.112,1.008,-0.336,-2.1056,-0.9856,0.3136,0.0224,-0.112,1,-4,-7,0,0
5000,4006,-1.0528,-0.336,-0.672,-4.6816,1.456,-0.336,-1.6576,0.6496,-1.3888,-2.9792,0.6496,0.2016,-0.672,0.8512,0.2912,-0.0224,-5,1,2,0,0
3000,4001,-0.2688,-0.3808,0.0672,2.3744,2.016,-0.7392,-2.1952,3.7408,-1.8592,-2.2848,-0.2912,-0.8288,0.0672,-0.672,-0.6944,0.0448,1,-3,3,0,0
5000,4005,1.1872,-0.0672,1.1424,-0.8064,-1.008,-0.6944,1.2992,-0.224,1.0752,1.4784,1.2544,-0.1792,1.1424,-0.2016,-0.2464,0.112,3,2,-3,0,0
4000,4000,1.2992,1.12,1.008,-2.9568,-1.008,1.12,3.6064,-1.0976,3.4272,3.7408,-3.4272,0.0224,1.008,1.568,1.9936,-0.2688,-4,0,0,0,0
4000,4006,-0.5152,0.3584,-0.6944,-0.5376,-0.0448,1.0976,0.224,0.1344,0.5376,0.3584,-3.4048,0.7168,-0.6944,0.2688,1.12,0.0672,3,-3,3,0,0
4000,4005,-0.3584,0.4928,0.1344,0.5376,2.576,1.0752,-1.8144,1.1424,-1.3664,-2.3296,-1.904,-0.2016,0.1344,0.2464,0.3584,-0.0896,-3,0,1,0,0
4000,4003,-0.896,-1.0304,-0.2464,0.336,0.9408,-1.0752,-2.2624,0.2688,-2.3296,-2.688,5.8912,0.9408,-0.2464,-0.2464,-1.4336,0.1568,3,2,-3,0,0
4000,4003,-0.0672,-1.1648,-0.0672,1.0752,-2.7328,-1.7696,0.7392,-4.256,0.0448,1.2768,3.9424,2.576,-0.0672,-0.336,-0.9632,0.0896,-4,2,-4,0,0
4000,4004,1.2768,0.896,0.6944,3.024,-1.568,0.448,2.4416,-0.8064,2.2624,4.0768,-0.6048,-1.2992,0.6944,0.3808,0.5152,-0.0672,0,1,5,0,0
3000,4013,-1.2544,-0.6048,-1.4112,-0.9632,-0.9184,-0.6048,-0.4704,2.0832,-0.5152,-0.9408,-0.3808,-0.336,-1.4112,-0.5376,-0.0672,0.112,3,-2,-1,0,0
4000,3999,-0.4704,0.0672,0.0,-3.136,2.6656,1.5232,-1.7024,3.472,-1.1648,-2.6656,-3.2928,-1.0528,0.0,-0.3136,0.4928,-0.1792,2,1,0,0,0
6000,4001,-0.0896,-0.1344,0.1344,4.8384,1.792,-0.2016,-2.2848,2.3744,-1.9264,-2.1504,-1.1648,-0.7392,0.1344,-0.8064,-0.8736,0.0,-3,-4,0,0,0
4000,3998,0.784,-0.0448,0.2464,2.7104,-2.0608,-2.7328,0.3136,-2.352,0.2016,1.5008,1.8592,0.9184,0.2464,-0.784,-1.232,0.3584,8,2,2,0,0
3000,4010,-1.2768,-1.456,-1.9712,-0.9856,-4.0096,-1.008,1.2096,-1.792,1.8368,1.8144,2.128,0.7168,-1.9712,0.8512,0.2016,0.0,-5,-1,-2,0,0
4000,3999,0.0896,0.8064,-0.0896,-0.6496,0.8512,1.9488,0.7616,-0.56,-0.1568,-1.4112,5.376,3.5168,-0.0896,1.3216,0.7392,-0.0896,-1,0,1,0,0
4000,4001,-0.4928,0.2016,-0.2912,2.0384,2.128,0.4704,-1.7472,2.0832,-1.4784,-1.792,-0.9856,-1.0304,-0.2912,0.0896,0.3808,-0.2688,0,7,-1,0,0
4000,4005,1.0528,1.008,1.5456,6.8096,3.024,0.336,-1.2096,4.032,-0.9408,-0.9408,-6.2944,-3.6512,1.5456,-1.0976,-0.0224,-0.0448,2,-2,1,0,0
3000,4001,1.4784,0.3808,1.2544,0.8736,-1.232,-1.0304,1.792,-0.9632,1.4112,2.8,-0.6944,0.672,1.2544,-0.0896,-0.0672,0.1568,1,-4,-4,0,0
4000,4002,0.2688,0.1344,-0.1792,-2.4864,-2.4416,0.2016,2.7552,-3.024,2.4192,3.1584,-2.6432,0.3584,-0.1792,0.7616,1.008,0.0224,-9,1,3,0,0
4000,4004,-0.7168,-0.0896,-0.896,-1.68,0.2464,0.1792,-1.008,-0.0896,-0.6496,-1.0752,0.0224,-1.8368,-0.896,-0.4928,-0.56,-0.2016,6,0,0,0,0
5000,4004,-0.3584,0.0672,-0.0896,-7.392,1.9936,1.1648,-1.6576,-0.8736,-1.568,-3.2032,5.6448,0.5824,-0.0896,0.784,0.3136,-0.0672,1,1,-1,0,0
4000,4004,-0.6496,-1.008,-0.112,-0.336,0.4256,-0.112,-1.5456,1.344,-1.68,-2.6432,1.0528,0.0448,-0.112,-0.56,-0.6048,0.112,-1,-1,1,0,0
4000,4002,2.3968,1.1424,2.0832,8.6912,-0.336,-0.0448,2.688,1.456,2.2848,3.3152,-5.5104,-1.1872,2.0832,0.336,0.5824,-0.0448,1,-1,1,0,0
3000,4004,0.336,0.336,-0.1344,2.4416,-1.9712,-0.7392,2.0384,-0.4928,1.6352,1.7472,2.1728,1.12,-0.1344,0.6496,0.5376,-0.112,0,-4,0,0,0
5000,4002,-1.0976,-0.1344,-1.1648,1.232,-0.0672,0.0448,-0.224,1.12,-0.0224,-0.3136,2.1056,0.112,-1.1648,1.2096,0.4704,0.112,0,3,-1,0,0
4000,4004,0.672,1.4784,1.0976,5.7792,3.92,2.352,-1.8144,4.256,-1.2992,-1.2768,-3.7408,-1.8368,1.0976,-0.4704,0.5152,0.0448,0,1,0,0,0
4000,4005,-0.4256,-0.8064,0.0224,-6.1376,0.336,-0.6048,-1.456,-2.464,-1.6576,-2.1056,4.1888,2.9792,0.0224,-0.3808,-0.6272,0.3136,-4,-2,2,0,0
3000,4001,0.2912,-0.8288,0.112,-1.6352,-2.8224,-1.12,1.3888,-4.0992,0.7616,1.344,3.5616,0.7616,0.112,0.336,-0.4032,-0.1568,5,1,-3,0,0
5000,4003,1.2544,1.0976,0.8288,-0.336,-0.6272,1.3664,2.5984,-2.352,2.4416,3.6512,-3.5392,-1.5008,0.8288,0.8512,1.344,-0.2016,0,4,-2,0,0
4000,4001,-1.1424,-0.3136,-1.0528,-7.9072,-0.6944,-0.8736,0.2464,-1.2768,0.1344,-0.0672,2.3968,3.0688,-1.0528,1.2096,1.0976,0.112,0,-4,1,0,0
3000,4011,-1.9488,-1.456,-1.792,-0.8064,0.6944,-0.8288,-3.5168,0.9632,-3.2704,-3.8528,4.592,3.0016,-1.792,-0.5824,-0.672,-0.0448,-4,3,3,0,0
4000,4000,0.6272,-0.0448,1.008,4.6368,1.7472,0.9856,-1.456,2.0608,-1.5232,-1.904,-0.112,-1.7696,1.008,-1.0752,-0.7616,-0.0672,5,-1,-3,0,0
5000,4000,2.8672,1.9712,2.5984,5.3088,-0.0672,1.2544,3.0912,-1.2768,2.9568,3.1136,-2.3072,-1.1648,2.5984,1.2992,0.784,0.224,-4,-2,4,0,0
3000,4005,0.224,0.2688,-0.2016,1.1648,-2.0832,-0.224,1.792,-1.008,1.792,2.912,-1.4784,0.112,-0.2016,0.4032,0.7392,0.1344,4,-3,-4,0,0
7000,4004,-1.8592,-1.12,-1.8816,-2.3072,-0.896,-1.232,-1.4112,0.2912,-1.2992,-1.6352,-0.4928,-0.0896,-1.8816,-0.9184,-0.6496,-0.1792,-7,4,2,0,0
1000,4007,-1.0752,-0.3584,-0.5376,-1.5904,2.0832,0.0448,-2.4416,1.7696,-2.0832,-3.8304,-1.344,-0.4256,-0.5376,-0.7392,-0.3584,0.0,4,1,-2,0,0
5000,4001,-0.8064,-1.2544,-0.4032,-4.4576,0.3808,-2.128,-1.9712,-0.6272,-1.9488,-1.5456,2.912,0.9632,-0.4032,-0.7616,-1.3664,-0.224,1,2,3,0,0
4000,4001,1.008,0.0448,0.6048,-1.456,-2.2848,-0.9184,2.576,-2.8896,2.1728,2.2176,-1.5008,0.5152,0.6048,0.4256,0.2016,0.1792,-5,-3,1,0,0
5000,4005,0.4032,0.672,-0.2016,1.0752,-1.1872,0.7616,2.2176,-0.448,3.136,3.8528,-4.4352,-1.456,-0.2016,1.008,1.6576,0.0672,5,3,1,0,0
5000,4002,-1.232,-0.6272,-1.3216,0.3584,0.1568,0.5152,-1.7696,0.336,-1.2096,-1.6352,1.5904,-0.0224,-1.3216,-0.7392,-0.1792,-0.1792,0,-7,-4,0,0
2000,4009,-0.1792,0.336,0.1792,0.4928,2.4864,1.232,-1.8592,1.2768,-2.5312,-2.464,2.2624,1.0304,0.1792,-0.8288,-0.5376,0.0448,-1,9,0,0,0
3000,3996,-1.0752,-1.5232,-0.6048,-1.0304,-0.3584,-1.792,-2.3072,1.0304,-0.9632,-1.232,1.9712,1.0304,-0.6048,-0.3808,-0.3808,0.336,0,0,0,0,0
4000,4006,2.5536,1.5232,2.1056,2.4192,-0.9632,-0.0224,3.7632,-0.784,2.688,2.7328,0.2912,-0.5824,2.1056,1.0528,0.6496,-0.224,4,-5,2,0,0
4000,4002,0.2464,0.672,-0.1344,-0.2016,-1.3664,0.9184,2.24,-0.6272,1.0752,2.016,0.56,0.6048,-0.1344,0.56,0.1792,0.0,-2,-3,-2,0,0
4000,4002,-1.4336,-0.56,-1.0976,-0.448,0.3808,0.1792,-1.4336,1.12,-1.2096,-1.3216,-1.232,-0.4928,-1.0976,0.2464,-0.0896,0.1792,-2,3,-2,0,0
5000,4007,0.4032,0.8512,0.8736,0.4704,3.2032,0.56,-1.3888,3.3824,-1.2992,-1.4784,-0.224,-0.9408,0.8736,0.4032,0.336,-0.1792,4,-3,4,0,0
4000,4001,1.5904,0.896,1.7248,-0.6944,2.0608,0.5152,0.0,0.3808,0.1568,-1.0976,-3.0912,-0.8512,1.7248,0.4256,0.4256,-0.224,-6,2,-1,0,0
3000,4008,1.6128,0.6048,1.0752,1.8144,-1.792,0.4256,2.6656,-2.2624,2.576,3.3824,-4.3456,-1.0528,1.0752,-0.1344,0.4704,0.2464,4,0,-1,0,0
5000,4000,-0.8064,-0.56,-1.6128,2.2848,-2.464,-0.6944,0.8064,-1.68,0.784,1.3664,1.8816,1.0528,-1.6128,-0.2688,0.2016,0.0896,-1,1,3,0,0
4000,4004,-1.232,-0.5824,-1.456,1.7696,0.6944,-0.336,-2.0384,1.1648,-1.4112,-2.7552,1.232,0.7168,-1.456,-0.5376,-0.3584,-0.0896,3,1,-4,0,0
4000,4002,-1.0752,-0.4704,-0.6272,-0.6272,1.7472,-0.2912,-2.7552,3.1584,-2.1728,-2.6656,2.0832,0.6048,-0.6272,-0.3808,-0.56,-0.2464,-4,-3,3,0,0
4000,4014,-0.112,-0.7168,0.4704,0.336,-0.3136,-1.6128,-0.0896,-0.2464,-0.7616,-1.2096,8.7136,2.1952,0.4704,1.0528,-0.2688,0.0896,3,2,0,0,0
4000,4000,1.3664,0.5376,1.2096,6.2272,-1.4784,-0.0672,2.1952,-1.5008,1.7696,2.8896,-1.5232,-0.784,1.2096,0.6944,-0.0672,0.0896,-3,-1,-1,0,0
4000,3998,0.9856,1.232,0.8064,3.2928,-0.4032,1.7696,2.1504,0.4704,2.1056,3.0688,-11.9168,-2.5088,0.8064,-1.0976,1.3664,0.0224,-3,7,-1,0,0
4000,4003,-0.3808,0.3808,-0.3808,0.0,1.2992,0.0672,-0.9184,1.7472,-0.56,-0.8512,0.3808,0.8736,-0.3808,-0.6944,0.4704,-0.0448,3,-3,0,0,0
4000,4004,-0.5824,-0.0448,-0.2464,-0.3584,1.9488,1.0304,-1.5904,3.4944,-1.5008,-1.5232,3.7632,-0.5824,-0.2464,0.6496,0.4256,0.0,0,-1,0,0,0
3000,4001,-0.1792,-0.896,0.2688,0.0,0.2016,-1.0752,-1.12,0.3584,-1.568,-2.1952,5.3984,1.0304,0.2688,-0.672,-1.1648,0.0672,3,-4,1,0,0
5000,4004,-0.7392,-1.4784,-0.9856,-2.6432,-3.9648,-3.2928,1.568,-3.36,0.8288,1.0976,2.4864,0.336,-0.9856,-0.2464,-1.1424,-0.0448,1,0,-1,0,0
4000,4005,0.224,0.6944,-0.4032,1.5904,-0.6272,1.8368,1.0528,-1.68,1.3888,1.7472,-2.1504,-0.56,-0.4032,0.5824,0.5824,0.2016,-5,-1,3,0,0
4000,4002,-0.6048,0.1792,-0.6048,0.3584,0.9184,0.8064,-0.7616,0.7168,-0.2688,-0.8064,-0.6048,1.4112,-0.6048,0.6496,0.7168,-0.3136,-2,4,-2,0,0
4000,4008,0.2016,0.5824,0.7616,3.472,3.2256,1.0304,-1.7696,4.3008,-1.3216,-2.5984,-3.4272,-2.0608,0.7616,-0.2688,0.4704,0.1568,9,-2,0,0,0
4000,4019,0.3808,-0.4704,0.8288,-0.7168,0.1568,-0.7616,-0.3808,-0.0448,-0.8064,0.6048,0.1344,-1.456,0.8288,-1.12,-0.784,0.0224,-6,-1,0,0,0
4000,3981,0.8064,-0.224,0.5376,-3.584,-2.9568,-1.0304,2.6656,-4.2112,1.9712,1.8816,1.5456,1.6128,0.5376,1.0752,0.4928,-0.0672,-1,3,-1,0,0
5000,4009,-0.4032,0.0224,-0.784,0.896,-1.6352,-0.0224,1.3664,-0.7616,1.3888,1.792,-1.2544,0.5824,-0.784,0.896,0.9632,0.0,2,0,0,0,0
3000,3998,-2.912,-2.2176,-2.7328,-1.344,-0.9856,-1.2544,-3.5392,1.5456,-2.24,-1.5456,0.5824,0.0896,-2.7328,-1.1424,-0.7616,-0.0672,0,1,1,0,0
4000,4002,0.448,0.8064,1.0304,-3.3824,3.36,1.1872,-1.1424,1.8368,-1.456,-3.136,3.2032,0.1792,1.0304,0.4704,0.0448,-0.0448,1,-1,-1,0,0
4000,4004,2.4192,1.7248,2.576,2.0608,2.1728,1.232,1.9936,0.7392,1.1424,0.4928,-2.0384,-1.9264,2.576,0.8288,0.8512,0.112,1,2,2,0,0
4000,4004,2.1728,1.2992,1.456,6.1824,-0.9184,0.9632,2.464,-1.7472,2.016,3.9648,-1.9488,-1.8592,1.456,-0.1792,0.0896,0.0,-7,-1,-1,0,0
4000,4004,-0.5824,-0.0672,-0.896,-1.1648,-1.9264,0.0896,1.7472,-2.3296,1.6576,2.2848,-0.7392,0.5824,-0.896,0.896,0.784,0.0896,3,-1,-2,0,0
4000,4003,-1.68,-1.0752,-1.68,3.472,0.2688,-0.0672,-2.5312,2.2848,-2.24,-2.5088,0.3584,1.8368,-1.68,-0.672,-0.4256,0.0224,-1,-4,0,0,0
4000,4004,-1.008,-0.7616,-0.6048,-2.5984,1.5456,-0.6496,-2.8,2.7776,-2.8448,-3.8528,6.2048,1.2544,-0.6048,-0.3136,-0.6272,-0.1344,3,6,-1,0,0
4000,4002,0.672,-0.112,0.8288,0.56,0.1792,-0.6048,-0.2016,-0.784,-0.336,-0.8288,1.9488,0.56,0.8288,0.1792,-0.5376,0.0224,0,-3,0,0,0
4000,4004,-0.3136,-0.9408,-0.8288,0.1792,-3.4496,-1.8144,1.0528,-2.8,0.784,1.904,-0.6944,0.896,-0.8288,-0.9856,-0.896,-0.0448,1,1,0,0,0
4000,4004,0.2688,0.6944,-0.0448,-0.6496,-0.5824,1.1648,1.7696,-0.3584,1.7472,1.344,-1.3216,-1.1872,-0.0448,1.12,1.2768,0.2016,-1,-1,5,0,0
4000,4002,0.672,1.4112,0.8736,2.6656,2.688,2.464,-0.4256,3.0464,0.2016,1.0752,-5.9808,-4.1216,0.8736,0.0896,0.8512,-0.0448,6,7,-6,0,0
4000,4004,-0.6048,-0.2912,-0.224,-1.8592,1.9264,-0.9856,-2.128,2.1504,-1.8144,-2.3744,-0.112,-0.784,-0.224,-0.4928,-0.2016,0.0448,-9,-12,7,0,0
4000,4004,0.9184,0.0672,1.1424,0.0896,0.224,-0.448,0.336,-0.3808,0.0224,-0.1568,-0.2016,0.2912,1.1424,0.1344,-0.1568,0.0448,3,2,-5,0,0
3000,4002,0.5824,-0.1792,0.0896,1.2544,-2.7104,-0.1344,2.016,-1.12,1.5904,2.5088,-4.0544,-0.6944,0.0896,-0.8736,0.0,-0.2688,0,0,-1,0,0
5000,4004,-0.2016,0.4032,-0.6496,1.008,-0.8736,0.2912,1.1424,-0.8064,1.1872,0.784,0.56,0.7616,-0.6496,0.7168,0.9632,-0.112,1,4,1,0,0
3000,4002,-0.1792,0.672,-0.336,3.248,1.9712,0.224,-1.5456,2.4192,-1.0528,-1.792,0.6048,0.3808,-0.336,0.2016,0.1792,0.112,-3,-3,-1,0,0
4000,4004,-1.0528,-0.6944,-0.448,-2.128,1.5232,-0.2688,-2.2848,1.568,-2.0384,-1.9264,4.1664,2.0384,-0.448,-0.2912,-0.4704,0.112,4,6,3,0,0
4000,4005,-0.3808,-1.2096,-0.3584,-2.3744,-1.456,-1.8816,-0.672,-2.1728,-0.8512,-1.2096,0.8288,1.2096,-0.3584,-0.8512,-1.0304,0.1792,-6,-8,-2,0,0
5000,4001,1.4112,0.6944,0.8736,-1.2992,-1.8368,0.8512,2.5312,-2.1952,2.3072,1.792,-2.8,-0.9856,0.8736,0.6048,0.2016,-0.1792,6,2,3,0,0
4000,4003,-1.6576,-1.1648,-1.8368,-3.024,-2.1056,-0.9408,0.0224,-0.5152,0.1792,0.8512,0.1568,0.0,-1.8368,0.0,-0.112,-0.0672,-6,0,-2,0,0
4000,4003,-0.9408,-0.2688,-0.8288,-0.4704,1.456,0.6272,-2.352,1.7472,-1.8368,-1.7024,1.68,-0.9408,-0.8288,-0.4256,-0.2464,0.0672,6,-1,3,0,0
8000,4005,-0.5152,-0.4928,0.0672,-3.248,1.6576,0.4032,-2.2848,0.784,-2.3968,-2.0832,-0.3136,-0.448,0.0672,-0.9184,-0.3808,0.0896,-3,1,-3,0,0
0,4006,-0.4704,-1.2992,-0.0448,-4.592,-2.2176,-2.688,0.8512,-3.4944,-0.2912,0.3136,5.152,2.7776,-0.0448,0.336,-0.224,-0.2016,-2,0,1,0,0
4000,3999,1.904,1.5232,1.2992,4.8384,-1.232,0.7392,3.2928,-1.8368,2.7552,3.584,-4.9728,-1.3216,1.2992,0.7392,1.232,-0.2688,-2,0,1,0,0
4000,4005,0.7616,1.2096,0.2016,1.3216,0.224,1.8592,1.2768,-0.0896,1.5232,1.5232,-1.8144,-0.0448,0.2016,0.6944,1.0752,0.2688,-1,3,0,0,0
4000,4003,-2.1952,-1.5008,-1.9488,-2.9792,0.0896,-0.896,-2.8224,-0.2464,-1.68,-2.5088,1.904,1.3888,-1.9488,-0.3808,-0.0448,0.1792,6,-3,-2,0,0
4000,4002,-2.3296,-2.1952,-1.8144,1.5456,0.336,-2.7776,-3.584,1.7024,-3.3376,-3.4944,5.1072,1.1872,-1.8144,-1.12,-1.344,-0.112,0,0,-1,0,0
4000,4004,1.8368,0.784,1.9712,4.7488,0.9632,0.5152,0.8288,0.784,-0.0672,-0.2016,2.9344,1.4784,1.9712,-0.0448,-0.6944,-0.0448,-1,4,3,0,0
4000,4005,2.128,1.8144,1.5456,0.5152,-0.896,1.5456,3.5168,-0.5152,3.6288,4.144,-3.7856,-1.4784,1.5456,1.4112,1.5008,-0.0672,2,0,-3,0,0
4000,4002,-1.0304,-0.448,-1.3888,-1.68,-1.3888,-0.112,0.1792,0.1568,0.672,0.0896,-5.488,-1.2992,-1.3888,-0.5152,0.6272,-0.0672,-4,-1,3,0,0
4000,4009,-0.5376,0.0896,-0.3808,-2.688,1.7248,1.008,-1.568,-0.1568,-1.3664,-2.1728,1.7248,0.4256,-0.3808,0.224,0.4704,0.0448,-3,3,-4,0,0
4000,3999,-0.4704,-0.3136,0.3136,-4.2336,1.792,-0.1792,-1.5008,0.4032,-1.5456,-2.1056,5.1744,0.6944,0.3136,0.2016,-0.224,0.1344,5,-7,3,0,0
4000,4002,0.6048,-0.448,0.8512,-0.8288,-0.8288,-1.5456,0.5376,-0.896,-0.0672,0.224,3.36,1.68,0.8512,-0.2912,-0.4032,0.0896,7,6,-4,0,0
4000,4003,0.6944,0.0896,0.1344,0.6496,-2.5536,-0.56,2.24,-1.68,1.904,3.0464,-2.3744,0.336,0.1344,0.5152,0.3808,0.0,-6,-4,3,0,0
4000,4003,-1.0528,-0.5152,-1.4336,0.5152,-1.68,0.8736,-0.2016,-0.448,-0.2016,0.2016,-2.016,-0.5152,-1.4336,-0.2464,0.224,0.0672,2,2,4,0,0
6000,4003,-0.2912,0.3584,-0.1568,-0.5376,1.9488,0.672,-1.3216,0.7616,-0.9632,-1.8368,-0.6944,0.0672,-0.1568,0.5376,0.5152,-0.0224,-6,1,-5,0,0
3000,4005,-0.112,0.0672,0.1792,4.3456,2.7328,0.112,-2.4864,2.1952,-1.904,-2.1952,-2.5984,-1.5232,0.1792,-1.0528,-0.56,-0.2688,1,-4,0,0,0
3000,4003,-0.2688,-1.232,-0.336,0.8064,-1.6352,-1.7472,-0.5152,-1.2768,-0.7168,0.56,3.92,1.6128,-0.336,-1.7024,-1.7472,-0.224,1,2,1,0,0
4000,4003,0.2688,-0.0224,-0.1792,-2.2848,-2.9344,-0.5824,2.352,-2.3072,1.8816,2.576,1.7248,1.232,-0.1792,0.2912,0.3584,0.0672,2,3,2,0,0
4000,4005,-0.1792,0.448,-0.3808,-1.8144,-0.2464,0.6944,1.1424,0.0,1.1872,0.336,0.5824,0.9856,-0.3808,1.3664,1.68,0.2016,0,2,-3,0,0
4000,4002,0.448,1.232,0.672,4.3904,2.9568,1.2992,-1.1424,3.4944,-0.4032,-1.6128,-5.5776,-1.2992,0.672,0.1792,1.12,0.2464,1,-5,4,0,0
4000,4004,0.3136,0.224,0.8288,2.464,2.3968,-0.0672,-1.904,2.1504,-1.7248,-1.5904,-0.3584,-1.1424,0.8288,-0.6272,-0.6272,-0.0672,-1,-1,0,0,0
4000,3998,0.0,-1.1648,-0.1568,-1.792,-2.2176,-1.3216,0.5152,-3.7408,-0.1344,0.112,2.2848,1.456,-0.1568,0.0224,-1.0528,-0.2016,2,-1,-6,0,0
4000,4008,1.008,0.6272,0.6272,-1.7696,-1.3888,0.5824,2.3968,-3.8528,2.352,2.7776,-0.7392,0.784,0.6272,0.6944,0.672,-0.1344,-5,-3,0,0,0
4000,4001,-0.56,0.0224,-0.672,0.448,-0.8064,0.1344,0.784,0.448,0.7392,1.9712,0.0224,0.4704,-0.672,0.336,0.9856,0.1792,1,4,5,0,0
4000,4004,-1.2992,-0.448,-1.2544,5.3984,1.12,-1.2768,-3.1808,4.3008,-2.7104,-3.4272,-0.0896,-1.6352,-1.2544,-1.1872,-0.9856,0.0224,-3,5,1,0,0
4000,4013,0.0,0.2016,0.5376,-2.016,2.464,0.784,-2.128,2.9792,-1.6352,-2.24,1.6128,-0.896,0.5376,0.0448,-0.3584,0.2016,-2,-4,-2,0,0
5000,3993,0.784,-0.1344,0.6496,-2.2848,-1.4112,-0.8064,1.9264,-1.7472,1.456,1.792,-0.3584,0.2688,0.6496,0.448,0.4704,-0.2912,4,1,0,0,0
3000,4005,-0.112,-0.5376,-0.7168,-3.4272,-3.0464,-0.1792,2.1952,-4.2336,1.6576,1.7696,0.448,-0.448,-0.7168,0.2688,0.0448,-0.112,-2,-4,-4,0,0
10000,4003,0.0224,0.7168,0.0224,-4.032,0.56,1.5008,1.1424,-0.3136,0.9184,1.2992,1.568,-0.2016,0.0224,1.3888,0.9408,0.3584,3,1,0,0,0
1000,4016,0.8512,1.5008,1.2096,0.56,3.472,2.0608,-0.112,2.352,0.112,-0.7168,-6.0032,-1.5904,1.2096,0.672,1.792,0.0,3,1,6,0,0
1000,3997,-0.8736,-0.9856,-0.224,0.1792,1.3888,-1.5904,-3.2704,0.112,-1.8144,-2.8448,-0.0896,0.3808,-0.224,-0.7168,-0.8288,-0.112,0,0,0,0,0
4000,3998,-1.5456,-2.5984,-1.6352,0.5376,-3.9424,-2.6432,-1.12,-1.3888,-1.1424,-0.5376,5.0176,2.7776,-1.6352,-1.568,-2.6208,0.0448,-5,-4,0,0,0
4000,4002,1.5456,1.2992,0.8512,4.1888,-1.2544,0.5824,3.0464,-0.448,1.8144,2.9568,-0.448,0.448,0.8512,0.3808,0.6944,0.224,1,1,1,0,0
4000,4005,0.7616,1.5232,0.448,-0.8736,1.0752,1.5456,1.2096,0.9632,1.12,1.8144,-4.9728,-3.0688,0.448,0.1792,1.568,-0.1568,6,4,-2,0,0
4000,4003,-1.1424,-0.448,-0.8064,-2.4192,1.456,1.0976,-2.1728,1.7024,-1.9936,-3.0688,1.5232,-0.3584,-0.8064,-0.3136,-0.2464,-0.0672,-1,2,-1,0,0
4000,4002,-0.2016,-0.448,0.2688,-1.792,1.7024,-0.9184,-1.2768,1.3888,-1.3664,-2.0608,3.3824,0.0896,0.2688,0.0,-0.4256,-0.0224,3,-2,3,0,0
4000,4004,0.2912,-0.7616,0.3136,-0.896,-1.7248,-1.7696,0.7616,-2.8672,0.4704,0.4256,-0.0672,-0.0672,0.3136,-0.448,-0.672,0.0896,-2,1,-4,0,0
4000,4003,1.0752,0.8512,0.6496,1.2544,-1.7472,0.5152,2.9792,-1.7248,2.7776,3.584,-2.9792,1.8144,0.6496,1.0752,1.456,0.0224,-3,-3,-2,0,0
4000,4002,-0.5824,-0.0448,-0.672,1.2992,-0.336,1.5008,-0.0224,0.6496,0.0,-0.6048,2.016,0.4704,-0.672,0.784,0.3136,-0.1568,0,6,2,0,0
4000,4005,-1.2992,-0.7168,-1.2768,-0.6944,1.232,-0.56,-3.1584,0.896,-2.688,-2.0832,0.3136,-1.6352,-1.2768,-0.672,-1.2544,0.112,2,-5,-3,0,0
4000,4002,-0.224,-0.3808,0.112,-1.0528,1.3888,-0.112,-2.2848,0.7392,-2.0384,-2.352,-0.4256,-0.6048,0.112,-0.8512,-0.7168,-0.0224,-6,2,4,0,0
4000,4002,2.464,1.2768,2.24,1.3664,-0.2688,0.4032,2.6656,-0.6496,2.5088,1.8592,-4.256,-1.008,2.24,0.5152,1.0752,0.2016,3,-3,-2,0,0
4000,4003,0.4704,0.4032,0.0,0.7168,-1.9488,-0.336,2.3968,-1.2544,2.3296,2.7328,-2.464,1.3664,0.0,0.4256,0.9184,-0.224,-2,3,3,0,0
4000,4006,-1.1872,-0.5152,-1.232,-0.3136,-0.7392,-0.784,-0.2688,1.232,-0.3808,0.8512,1.6576,1.2096,-1.232,0.4256,0.5152,-0.112,0,0,-3,0,0
4000,4001,-0.896,-0.1568,-0.336,0.224,2.24,0.7168,-2.3296,2.6656,-1.904,-2.1952,2.7104,-0.5152,-0.336,0.5824,-0.224,0.0,2,-2,1,0,0
4000,4004,0.672,0.4032,1.12,-0.336,2.3072,1.0528,-0.784,0.8064,-0.672,-1.456,4.4352,0.7392,1.12,0.896,0.1792,0.0,2,0,3,0,0
4000,4004,0.672,-0.4032,0.448,2.5312,-2.0832,-1.5008,1.2096,-2.352,0.672,1.6128,1.2544,0.3136,0.448,-0.5824,-0.6272,-0.0672,-1,3,1,0,0
4000,4003,0.8512,0.8512,0.1568,-1.0976,-1.792,1.0976,2.7552,-2.9344,2.5088,2.9344,-1.5456,-0.336,0.1568,0.5376,1.1424,-0.0896,-3,5,-4,0,0
4000,4003,-0.2464,0.5152,-0.448,1.0752,0.5824,0.8512,-0.224,1.5232,-0.112,-0.336,-3.6512,-0.4256,-0.448,-0.336,0.784,0.2688,0,-8,4,0,0
4000,4002,-1.1648,-0.3808,-0.7168,2.688,1.6352,-0.4256,-2.24,3.7632,-1.8592,-2.7328,-1.2768,-0.9184,-0.7168,-0.5376,-0.3136,0.0672,3,4,-4,0,0
4000,4006,0.8064,0.448,1.232,3.5616,2.3296,0.3136,-1.2768,2.1728,-1.0976,-1.8592,2.5536,0.896,1.232,0.1344,-0.4928,0.1568,5,2,-4,0,0
4000,4001,0.4032,-0.7392,0.224,-5.3984,-2.7104,-0.9408,1.7248,-5.6448,1.0752,1.5008,5.1072,2.4192,0.224,0.6944,-0.2688,-0.0448,-8,-7,6,0,0
4000,4000,-0.4704,-0.56,-0.9408,-3.1136,-2.688,-0.1568,1.3664,-3.9648,1.0528,1.5008,-1.8368,0.672,-0.9408,-0.1568,0.1568,0.2016,0,1,0,0,0
4000,4007,-0.1792,0.5152,0.0,-3.4944,0.7392,1.2096,0.3136,0.6496,0.4256,1.008,-1.68,-0.896,0.0,0.4704,0.8064,-0.336,0,2,-5,0,0
5000,4005,-0.9408,-0.3808,-0.6496,-0.7168,2.0832,0.0672,-2.464,2.0608,-2.0608,-3.136,0.0448,-0.4928,-0.6496,-0.6048,-0.6272,0.224,2,-1,5,0,0
4000,4001,-0.8064,-1.2992,-0.336,0.8288,0.4256,-1.6352,-2.6208,1.5904,-2.128,-3.4272,1.6128,-0.336,-0.336,-0.896,-1.1872,-0.3808,-3,-1,-3,0,0
3000,4006,-0.112,-1.2768,-0.2016,2.8896,-2.9792,-2.4416,0.56,-0.0448,0.896,2.7776,1.456,-0.5152,-0.2016,-0.224,-0.9856,-0.0448,7,-2,5,0,0
4000,4003,1.4784,1.7248,0.8512,1.9264,-1.1424,1.6576,4.1216,-1.8144,2.576,3.7856,-1.3888,0.8064,0.8512,1.0752,1.568,0.2688,-2,-2,-1,0,0
4000,4002,-0.1792,0.8512,-0.4256,2.5984,1.1648,1.8816,-0.448,1.2992,-0.3136,-0.784,-1.7024,-0.5824,-0.4256,0.1568,1.008,0.0,-2,5,0,0,0
4000,4003,-0.9632,-0.448,-0.5376,-1.7472,1.904,-0.6496,-2.5088,3.472,-2.1728,-2.8896,0.6944,-0.8736,-0.5376,-0.4928,-0.2912,-0.2688,-3,-2,-1,0,0
4000,4002,1.344,0.9408,1.8144,2.5312,2.3744,0.9184,-0.2464,2.576,-0.0672,-0.1792,-0.784,-2.4192,1.8144,0.6048,-0.0448,0.0,7,-2,0,0,0
4000,4005,1.8592,0.6944,1.4784,0.2016,-1.4336,0.224,3.136,-2.0384,2.6656,2.128,-0.3584,-0.4032,1.4784,0.56,0.6496,0.0224,1,6,-1,0,0
4000,3999,-0.1568,-0.224,-0.5376,-2.016,-1.9712,-0.1568,1.4112,-2.7328,1.3888,0.8288,1.344,1.2992,-0.5376,0.6048,0.2688,0.0672,-4,0,0,0,0
4000,4007,-1.4784,-0.6944,-1.5904,-2.6432,-0.6048,-1.2096,-0.9408,0.448,-0.6048,-0.3584,-2.9344,1.0976,-1.5904,0.2912,0.0672,0.0672,-5,-1,-1,0,0
4000,4002,-0.336,0.336,-0.224,4.5472,2.8224,1.0752,-2.7104,3.584,-1.9264,-0.8512,-4.3904,-0.2688,-0.224,-0.9632,-0.0896,0.0448,2,2,-3,0,0
4000,4000,0.6272,0.0672,0.9184,1.9712,1.456,0.1344,-1.568,1.9264,-1.5008,-0.6272,2.8672,0.0,0.9184,-0.9408,-0.8512,-0.112,3,-1,6,0,0
4000,4008,1.5232,0.448,1.3216,-1.3664,-1.68,0.0448,2.7328,-3.1136,2.0384,1.9936,-1.2992,-0.4928,1.3216,0.6048,0.5152,0.0448,2,5,-4,0,0
6000,4005,0.3584,0.5376,-0.1568,-2.24,-1.4784,-0.6496,2.1952,-1.9488,2.1728,2.24,-2.2624,-0.3584,-0.1568,0.6944,1.3216,-0.1792,-4,-9,1,0,0
2000,4024,-1.2096,-0.1568,-1.344,-2.1056,-0.224,0.224,-0.9632,1.5008,-0.7168,-0.8288,1.2544,-0.6496,-1.344,-0.112,-0.0448,0.0,6,0,0,0,0
4000,4007,-0.2464,0.448,0.2688,-1.904,2.6432,1.5456,-1.4112,2.0384,-1.1872,-1.8592,3.3152,-0.2912,0.2688,0.784,0.5152,0.0224,-2,2,1,0,0
4000,4001,-1.7024,-2.3072,-1.2096,-2.2176,-0.9408,-2.4192,-2.24,-0.336,-2.4416,-3.1584,3.8528,0.5376,-1.2096,-0.9408,-1.6352,0.0672,1,-2,0,0,0
4000,4001,1.7472,0.784,1.5008,4.9056,-1.008,-0.5152,2.5312,-0.5152,2.0608,2.7776,-1.2992,-0.896,1.5008,0.8064,0.448,0.2912,-3,0,0,0,0
4000,4005,1.2096,1.3216,0.7392,8.6688,-0.3808,1.6352,1.5456,2.0608,1.792,3.024,-4.1216,-2.1728,0.7392,-0.1568,0.448,-0.0224,-2,0,-2,0,0
4000,4004,-1.12,-0.4032,-1.2992,-0.6496,-0.2464,-0.3808,-1.1872,-0.3136,-0.896,-1.9488,0.3584,1.6352,-1.2992,-0.2912,0.112,-0.0448,4,4,4,0,0
4000,4003,-1.3888,-0.8512,-1.1648,-2.912,1.4112,0.112,-3.024,0.1568,-2.6432,-2.5088,1.8144,1.0752,-1.1648,-0.7168,-0.9632,-0.2912,0,1,0,0,0
4000,4005,-0.4032,-0.9184,0.0896,-4.5248,0.112,-0.9408,-1.4112,-1.8368,-1.456,-0.8512,3.584,1.68,0.0896,-0.4032,-1.0528,0.112,-2,3,-4,0,0
4000,4001,1.12,-0.112,0.672,0.3584,-2.5312,-0.9856,2.9792,-3.0688,2.24,2.3744,-0.0224,-0.3584,0.672,0.448,0.336,0.1792,1,-3,0,0,0
6000,4004,-0.6048,-0.3584,-1.0528,2.24,-1.7024,0.6272,0.3808,-0.9184,0.7392,0.7616,-4.3904,-0.0896,-1.0528,-0.8064,-0.112,-0.0672,2,1,0,0,0
2000,4003,-1.456,-0.5824,-1.2544,-4.8832,0.2912,-0.224,-1.568,1.232,-1.0976,-1.9488,2.7104,0.2688,-1.2544,0.3808,-0.0448,-0.0448,0,-6,-2,0,0
4000,4002,-0.2688,0.336,0.2464,-2.3744,2.4864,0.2016,-1.12,2.1728,-1.0528,-1.5232,1.9264,-0.6944,0.2464,1.68,0.896,0.0672,-2,4,6,0,0
4000,4004,2.016,1.1872,2.24,3.1808,2.0608,0.3584,0.896,1.6352,0.672,1.3888,-4.032,-0.8064,2.24,0.1568,1.0976,-0.0224,-1,0,0,0,0
4000,4004,0.672,-0.3808,0.1792,1.5008,-3.1584,-1.1424,2.2624,-3.3152,2.4416,3.584,0.2688,1.12,0.1792,-0.0224,0.896,-0.2688,1,-7,-2,0,0
4000,4003,0.112,0.6272,-0.3584,4.4352,-1.1424,0.896,1.3888,-2.1728,0.9632,1.4784,2.7776,1.9264,-0.3584,0.4704,0.2912,0.1568,0,1,1,0,0
4000,4002,-0.2688,0.5152,-0.4256,-1.008,1.4784,1.7248,-1.6352,-0.672,-1.8592,-2.8448,0.9408,1.792,-0.4256,-0.5376,-0.8288,0.112,1,6,0,0,0
4000,4000,-1.4336,-1.1424,-1.12,-5.7344,1.344,-1.0528,-3.0016,0.9856,-2.5984,-3.36,0.896,0.5152,-1.12,-0.5824,-0.672,-0.0448,0,-4,-4,0,0
4000,4008,1.2768,0.4928,1.5456,1.8816,1.4112,-0.3584,0.224,1.2992,0.112,-0.1344,-1.0976,-1.568,1.5456,0.2016,0.1568,-0.224,-8,4,5,0,0
4000,4003,2.5088,1.6128,2.1728,1.3216,-0.784,1.456,4.032,-0.6496,3.584,4.0992,-4.0544,-2.2848,2.1728,1.0752,1.2768,-0.0896,0,-6,-5,0,0
4000,4001,-0.7616,-0.4256,-0.9856,0.8512,-1.9488,0.0896,1.0304,0.224,0.9184,1.0528,-2.2848,0.1792,-0.9856,-0.4256,0.2464,0.3584,6,4,5,0,0
5000,4005,-1.9712,-1.1648,-1.8368,-3.1808,-0.224,-1.0976,-2.3968,0.8064,-2.1504,-1.8592,2.8448,1.1424,-1.8368,-0.6272,-0.8064,0.0448,2,-2,-4,0,0
3000,4005,-0.4704,0.2912,-0.1344,-1.7248,2.5088,0.4704,-2.2176,2.352,-1.904,-2.5088,-0.1344,-1.5904,-0.1344,0.0896,-0.3808,-0.1568,-7,0,2,0,0
4000,4002,-0.3136,-1.0976,-0.1568,0.2912,-0.8064,-1.6128,-1.1424,0.0896,-1.5904,-1.2992,4.4576,0.336,-0.1568,-0.7392,-1.3888,0.0,5,-2,2,0,0
4000,4005,0.6944,-0.2688,0.2688,3.5168,-3.0912,-0.8736,2.24,-2.2848,1.5232,2.5984,3.1136,0.0224,0.2688,-0.112,-0.0896,0.0224,-1,2,0,0,0
4000,4001,0.224,0.672,-0.112,-0.5152,-0.672,0.9856,1.5904,0.112,1.8592,1.8368,0.8512,1.3664,-0.112,1.1648,1.5456,0.0224,1,0,-1,0,0
4000,4005,-0.9408,-0.0448,-1.0304,-1.5232,0.9184,0.0448,-1.4112,1.9488,-1.0528,-1.0304,-1.6352,-0.672,-1.0304,-0.0448,0.3136,0.1792,-4,1,0,0,0
4000,4003,-0.4928,-0.0896,-0.224,-1.8592,2.4864,0.4704,-2.464,1.1648,-1.8368,-3.9424,-2.7104,-1.3216,-0.224,-0.5824,-0.6272,-0.112,4,-3,2,0,0
4000,4001,-0.1568,-1.008,0.1344,-1.3888,-0.2688,-2.0608,-0.896,-0.4928,-0.7168,-0.5152,2.1056,-0.0448,0.1344,-0.7168,-1.4784,0.0,-2,4,-4,0,0
4000,4004,0.0672,-0.7616,-0.4032,1.456,-3.3824,-0.5152,1.68,-2.5536,1.0752,2.8896,2.5984,1.3664,-0.4032,0.112,-0.56,-0.0896,2,-2,0,0,0
4000,4005,1.9936,2.352,1.6352,1.456,0.9632,2.8,2.8,-0.4032,2.8896,3.5616,-4.5696,-1.0752,1.6352,1.456,2.3296,0.0,2,5,1,0,0
5000,4023,-0.7168,-0.2016,-0.6496,-2.352,0.5376,0.3808,-0.5152,0.6048,-0.6048,-1.456,2.5312,0.9184,-0.6496,0.4256,0.4704,0.1568,-2,-4,3,0,0
3000,3981,-0.5376,-0.0448,-0.0672,-0.1568,2.464,-0.0448,-1.9936,1.68,-1.8816,-3.4944,-0.2912,0.1568,-0.0672,-0.1568,-0.0448,0.0,0,1,-1,0,0
4000,4020,0.9632,0.1792,1.2992,1.008,0.8064,-0.9856,-0.3584,-0.9856,-0.1344,-0.8736,-2.8,0.224,1.2992,-0.672,-0.336,0.0896,1,0,-8,0,0
4000,3989,1.68,0.9632,1.2768,0.6944,-1.904,0.4704,3.0912,-2.4864,2.8672,4.48,-5.4656,0.1568,1.2768,0.3584,1.2992,-0.0224,0,1,1,0,0
4000,4004,-1.344,-0.9184,-1.68,-1.5008,-2.4864,0.112,0.2464,-0.784,-0.0672,0.896,1.568,1.344,-1.68,0.0448,-0.0448,0.112,0,2,4,0,0
5000,4003,-1.3664,-0.56,-1.2992,-0.9856,0.7168,-0.3136,-1.9712,1.9264,-1.7472,-2.0384,0.1568,-0.9856,-1.2992,-0.3136,-0.5376,-0.1344,0,-3,-3,0,0
3000,4005,0.0672,0.3136,0.5152,0.1344,2.8,-0.224,-1.8592,3.8752,-1.4784,-1.5456,0.9632,-1.008,0.5152,-0.1568,-0.336,-0.1568,-1,-1,3,0,0
6000,4001,0.7168,-0.1792,1.0528,2.5312,-0.4032,0.3136,1.0528,0.896,0.4032,0.3584,1.7472,1.2096,1.0528,0.7168,0.0672,-0.0672,1,4,0,0,0
3000,4003,1.568,0.7168,1.0752,4.8608,-1.68,-0.3584,2.688,-2.1056,2.4192,3.248,1.7696,0.2464,1.0752,0.8512,0.8288,-0.224,3,2,4,0,0
3000,4006,-2.2176,-1.7472,-2.576,-2.8,-2.912,-1.3216,-1.2096,-2.016,-0.1344,0.0,-0.0448,0.448,-2.576,-0.4256,-0.0672,0.0224,-8,-6,-2,0,0
4000,4003,0.0672,1.008,0.2016,1.2992,2.576,2.24,-0.784,2.2176,-1.0976,-2.1504,-2.8896,-1.7472,0.2016,-0.784,-0.112,0.1344,0,0,1,0,0
4000,4000,-0.5824,-1.5456,-0.0224,-2.5088,2.2624,-0.7168,-2.464,0.896,-2.0832,-3.4496,2.128,0.6944,-0.0224,-0.56,-0.112,-0.0224,4,-1,-2,0,0
4000,4008,1.232,-1.2544,1.5008,-3.2928,0.112,0.0,1.232,-2.3968,1.008,1.456,2.0832,0.6272,1.5008,1.12,0.5376,0.112,1,-1,-2,0,0
4000,4001,1.344,0.2912,0.784,-0.4032,-2.1056,0.3136,3.5392,-2.7776,2.8224,4.7936,-1.5904,-1.8368,0.784,0.9856,0.3584,0.0896,0,-1,3,0,0
4000,4002,-1.12,-0.6272,-1.4784,-3.8752,-1.6352,-0.2688,0.0224,-1.6576,-0.0672,-0.2688,1.008,1.1424,-1.4784,-0.2016,-0.112,-0.1792,2,0,-4,0,0
4000,4000,-1.3216,-0.784,-1.1424,-1.2768,1.1424,0.2016,-2.6432,1.0752,-2.3968,-3.1136,1.3888,0.672,-1.1424,-1.1424,-0.7392,-0.2016,-4,4,2,0,0
4000,4007,-1.6128,-1.456,-1.0976,0.7168,0.6944,-1.0304,-3.0016,1.792,-2.8896,-3.472,2.7552,0.6048,-1.0976,-0.896,-1.232,0.224,-2,1,1,0,0
4000,3997,0.7616,-0.1344,0.9856,3.9424,-0.2016,-1.2992,0.336,-0.3808,0.2464,0.4032,-1.2544,1.456,0.9856,0.1568,-0.112,-0.0672,4,-1,1,0,0
4000,4009,0.8736,0.2464,0.224,-0.2912,-2.5312,-0.0896,2.3968,-2.5984,1.8816,2.576,-1.2992,0.4704,0.224,0.5152,0.2464,0.224,-2,2,-4,0,0
4000,4000,-0.4256,0.1792,-0.5824,-2.8,-0.896,0.8736,1.0752,-1.3216,0.9184,0.9632,1.12,-0.0672,-0.5824,0.9632,0.56,-0.0448,1,-3,2,0,0
5000,4004,0.4928,1.008,0.3808,1.7024,2.576,1.3216,-0.4032,3.248,-0.3136,-0.1792,0.5152,-0.5376,0.3808,0.4928,1.232,-0.0224,-1,3,0,0,0
3000,4003,-0.2912,-0.1568,0.2688,-0.8288,2.3744,-1.0976,-2.0608,2.1056,-1.6576,-1.8368,0.0448,0.1344,0.2688,-0.2016,0.0,-0.1344,1,-1,0,0,0
4000,4004,-0.1568,-1.0752,0.0448,0.5376,-1.1424,-1.008,-0.7392,-1.4336,-0.6496,0.0,2.2624,1.9488,0.0448,-0.5376,-1.1872,-0.0672,-5,-6,-3,0,0
4000,4005,-0.1568,-0.8288,-0.56,0.4256,-3.36,-0.2016,1.568,-1.9488,1.344,2.1056,-1.1424,0.896,-0.56,-0.56,-0.224,0.0896,2,3,6,0,0
4000,4001,-0.3136,0.224,-0.672,3.92,-0.5824,0.9856,0.3136,1.7248,0.6496,0.3584,-4.9728,-2.912,-0.672,-0.2464,0.2912,0.0224,3,1,1,0,0
5000,4005,1.2544,2.016,1.568,1.8368,3.5168,1.9264,0.1568,4.0768,0.4928,-0.448,-3.7632,-2.016,1.568,0.7168,1.5904,0.0448,-2,-2,3,0,0
4000,4002,-0.4928,-0.336,0.0448,-0.3808,1.7696,-0.672,-1.68,1.9712,-1.7024,-2.7104,2.0832,-0.224,0.0448,-0.0672,-0.3136,-0.0448,4,6,-4,0,0
4000,4002,-0.0224,-1.008,0.0,1.1424,-1.5232,-1.2544,-0.2912,-1.4112,-0.4032,-0.0896,5.0848,1.2096,0.0,-0.448,-1.2992,0.0,-3,-5,0,0,0
6000,4035,-0.448,-0.56,-0.9184,0.2688,-3.4944,-1.568,1.68,-3.2704,1.4336,2.7104,-1.456,0.7168,-0.9184,-0.3584,-0.4928,0.2688,0,1,-3,0,0
1000,3994,-0.2688,0.112,-0.6048,-0.8736,-0.4928,0.5824,0.3584,-0.8736,0.4256,-0.1568,1.0304,0.8288,-0.6048,0.2016,0.56,-0.0448,-5,-1,-3,0,0
7000,3983,-1.8368,-1.1872,-1.5008,-0.9408,0.7392,-0.448,-2.2176,1.12,-1.9936,-2.688,2.5536,-0.224,-1.5008,-0.1568,-0.8512,0.0,7,5,2,0,0
1000,4023,0.7168,0.8064,1.1648,3.4496,3.4048,0.0896,-1.7248,4.704,-1.4336,-1.2096,0.1568,-1.6128,1.1648,0.0896,-0.112,-0.0224,-3,1,2,0,0
4000,3983,1.344,0.3584,1.344,0.112,-0.6272,-0.2464,1.6576,0.0672,0.9856,0.6944,1.0304,0.2016,1.344,0.448,0.2912,-0.2016,2,-5,-2,0,0
5000,4000,1.792,1.3216,1.232,3.5168,-1.12,1.6128,3.2256,0.6048,2.8224,3.5392,-6.7872,-1.6576,1.232,0.336,1.3216,0.1568,-1,3,0,0,0
4000,4003,-2.016,-1.2544,-2.1504,-0.56,-2.0832,-1.68,-1.1872,1.12,-0.2912,0.672,-2.2848,-1.7472,-2.1504,-1.3888,-0.6496,0.1344,0,-1,1,0,0
3000,4005,-1.68,-0.8064,-1.5232,-1.568,0.56,0.0896,-2.576,1.3888,-1.9712,-2.8448,2.352,0.4256,-1.5232,-0.2688,-0.672,-0.3136,5,1,0,0,0
4000,4005,1.0752,0.9632,1.5008,1.7472,3.584,1.1872,-1.344,1.4784,-1.8816,-3.1808,0.224,-0.224,1.5008,-0.224,-0.672,-0.0224,-5,-2,3,0,0
5000,4004,1.232,0.1792,1.1648,-2.7776,-1.3216,-1.232,2.4192,-3.7632,1.7472,1.6352,1.7696,1.9936,1.1648,1.3216,0.784,-0.0672,2,3,-1,0,0
3000,4000,1.0528,0.6272,0.4704,-3.0912,-1.7024,0.672,2.24,-3.92,2.3072,3.5168,0.6496,2.2848,0.4704,1.0528,0.8736,0.2464,-3,-6,0,0,0
4000,4023,-1.12,-0.4032,-1.344,-3.584,-1.1872,0.1792,-0.1568,-0.7168,-0.0224,0.8736,-0.6272,-0.336,-1.344,0.0,0.4256,-0.2688,2,5,1,0,0
4000,3986,-0.4032,0.448,-0.2016,2.24,2.4416,0.672,-2.0384,3.2704,-1.68,-2.5536,-3.6064,-2.5984,-0.2016,-0.896,0.112,0.1792,1,4,-3,0,0
4000,4004,0.0,-0.0672,0.3584,-1.7024,2.3072,0.0448,-2.1952,2.2848,-1.792,-2.576,2.4864,0.5376,0.3584,-0.4256,-0.5824,-0.0224,-4,-8,2,0,0
4000,4000,0.2912,-0.7392,0.224,-3.8976,-2.352,-1.1872,1.2544,-3.2704,0.56,1.1648,1.792,0.56,0.224,0.2016,-0.784,-0.0672,-1,2,0,0,0
4000,4004,1.008,0.4928,0.56,0.3584,-2.2848,0.112,3.2032,-3.7408,2.4864,3.3376,1.5008,1.792,0.56,1.792,1.2768,-0.0224,4,0,-2,0,0
4000,4005,-1.2544,-0.448,-1.5232,0.7168,-0.7168,-0.9856,-0.784,-0.896,-0.6496,-0.6496,1.7696,2.6432,-1.5232,0.1568,0.2464,0.1344,-2,-1,0,0,0
4000,4000,-1.008,-0.2016,-0.9408,1.12,1.4336,0.7392,-2.0384,2.6656,-1.6576,-1.568,2.3296,0.0224,-0.9408,-0.0672,0.224,-0.0896,2,0,1,0,0
4000,4000,0.7168,0.56,1.12,2.016,2.7104,1.3888,-1.1872,2.688,-1.1872,-2.6208,-0.8064,-1.5456,1.12,-0.2464,0.112,0.2912,1,2,-2,0,0
4000,4007,1.2992,0.224,1.0752,3.808,-0.56,-0.56,0.5376,-0.0896,0.5824,1.6352,-2.3744,-0.672,1.0752,-1.2096,-1.0752,0.0224,-2,-3,2,0,0
4000,4002,1.0304,0.8512,0.5376,-0.7616,-2.016,-0.3136,2.9344,-2.3072,2.6656,4.0096,0.8512,1.4336,0.5376,1.2096,1.0752,-0.0672,-3,0,1,0,0
4000,4004,-0.8512,-0.1792,-1.0976,-3.1136,-0.672,0.336,0.224,-1.1648,0.2016,-0.224,-0.3808,1.2992,-1.0976,0.8512,1.0752,-0.112,3,0,-1,0,0
4000,4004,-2.7328,-2.0608,-2.3744,1.3888,-0.1792,-1.0528,-3.7856,2.1952,-3.472,-4.6368,2.912,-0.224,-2.3744,-1.344,-1.904,-0.2016,5,3,0,0,0
4000,4000,2.464,2.3072,2.9344,-0.1344,4.5472,1.904,-0.1344,2.4416,0.3584,-0.448,-4.032,-2.1952,2.9344,0.448,1.2544,-0.0896,-7,-2,1,0,0
5000,4009,0.3136,-0.6272,0.1568,-1.6128,-2.6432,-1.0976,1.68,-2.7328,1.008,1.8816,1.1424,0.672,0.1568,-0.5152,-0.2688,0.1344,8,-1,-3,0,0
3000,4004,-0.4928,-0.4032,-0.8736,1.344,-3.0688,-1.68,1.7248,-2.1056,1.0752,3.2032,1.1872,0.56,-0.8736,-0.1792,-0.0896,0.3136,-6,2,4,0,0
